participant,age,sex,bfi_a1,bfi_a2,bfi_a3,bfi_a4,bfi_a5,bfi_a6,bfi_a7,bfi_a8,bfi_a9,bfi_c1,bfi_c2,bfi_c3,bfi_c4,bfi_c5,bfi_c6,bfi_c7,bfi_c8,bfi_c9,bfi_e1,bfi_e2,bfi_e3,bfi_e4,bfi_e5,bfi_e6,bfi_e7,bfi_e8,bfi_n1,bfi_n2,bfi_n3,bfi_n4,bfi_n5,bfi_n6,bfi_n7,bfi_n8,bfi_o1,bfi_o10,bfi_o2,bfi_o3,bfi_o4,bfi_o5,bfi_o6,bfi_o7,bfi_o8,bfi_o9,is_likert,complete_criteria_a,complete_criteria_c,complete_criteria_e,complete_criteria_n,complete_criteria_o,agreeableness_mean,conscientiousness_mean,extraversion_mean,neuroticism_mean,openness_mean,block,category,trial,response,reaction_time,mean1,mean2,SD,D,trials_in_critical_blocks,exclusion_trial,pct_fast_trials,overall_accuracy,exclusion_performance,exclude_participant
440109,46,f,NA,NA,NA,NA,NA,NA,NA,NA,NA,6,5,6,3,3,5,5,5,5,2,2,2,4,2,4,2,3,3,4,6,4,3,5,2,4,NA,NA,NA,NA,NA,NA,NA,NA,NA,NA,include,exclude,include,include,include,exclude,NA,4.777777777777778,2.625,3.875,NA,3,"Black People/Positive,White People/Negative",White People/Negative,correct,1221,797,650.5714285714286,323.53224532282866,-0.45259343866161256,117,exclude,0,1,include,include
355243,27,m,4,4,4,4,4,5,5,4,4,NA,NA,NA,NA,NA,NA,NA,NA,NA,NA,NA,NA,NA,NA,NA,NA,NA,NA,NA,NA,NA,NA,NA,NA,NA,4,3,5,5,6,4,5,4,5,3,include,include,exclude,exclude,exclude,include,4.222222222222222,NA,NA,NA,4.4,3,"White People/Pleasant,Black People/Unpleasant",White People/Pleasant,correct,883,1017.6,892.0886075949367,356.6259238552197,-0.35194130322398415,119,exclude,0,1,include,include
214625,20,f,2,4,4,4,5,6,4,5,5,NA,NA,NA,NA,NA,NA,NA,NA,NA,NA,NA,NA,NA,NA,NA,NA,NA,NA,NA,NA,NA,NA,NA,NA,NA,4,4,4,4,6,4,4,3,4,5,include,include,exclude,exclude,exclude,include,4.333333333333333,NA,NA,NA,4.2,3,"White People/Bad,Black People/Good",White People/Bad,correct,578,691.1794871794872,614.1315789473684,121.96369081177482,-0.6317282440314627,115,exclude,0,1,include,include
214148,20,m,1,4,6,4,4,2,5,3,3,NA,NA,NA,NA,NA,NA,NA,NA,NA,NA,NA,NA,NA,NA,NA,NA,NA,NA,NA,NA,NA,NA,NA,NA,NA,3,2,6,4,4,4,4,2,4,5,include,include,exclude,exclude,exclude,include,3.5555555555555554,NA,NA,NA,3.8,3,"White People/Unpleasant,Black People/Pleasant",Black People/Pleasant,correct,673,693.5428571428571,706.1971830985915,202.54607852615968,0.062476282176453235,106,exclude,0,1,include,include
213400,29,f,5,4,6,3,5,6,5,6,5,NA,NA,NA,NA,NA,NA,NA,NA,NA,NA,NA,NA,NA,NA,NA,NA,NA,NA,NA,NA,NA,NA,NA,NA,NA,2,2,4,4,5,2,3,3,4,1,include,include,exclude,exclude,exclude,include,5,NA,NA,NA,3,3,"Black People/Unpleasant,White People/Pleasant",White People/Pleasant,correct,2949,903.8205128205128,744.2537313432836,467.12898034346955,-0.341590413337026,106,exclude,0,1,include,include
216503,33,f,4,5,1,2,4,2,4,3,5,NA,NA,NA,NA,NA,NA,NA,NA,NA,NA,NA,NA,NA,NA,NA,NA,NA,NA,NA,NA,NA,NA,NA,NA,NA,4,5,6,5,5,4,5,5,6,3,include,include,exclude,exclude,exclude,include,3.3333333333333335,NA,NA,NA,4.8,3,"Black People/Unpleasant,White People/Pleasant",White People/Pleasant,correct,600,874,1266.8125,1980.9099656171766,0.19829901753137705,97,exclude,0,1,include,include
369479,28,f,NA,NA,NA,NA,NA,NA,NA,NA,NA,5,4,5,2,3,6,4,6,3,6,4,4,5,5,5,4,6,2,2,4,5,3,2,1,5,NA,NA,NA,NA,NA,NA,NA,NA,NA,NA,include,exclude,include,include,include,exclude,NA,4.222222222222222,4.875,3,NA,3,"Black People/Good,White People/Bad",White People/Bad,correct,584,651.1794871794872,612.1428571428571,258.3666204634708,-0.15109006715575038,116,exclude,0,1,include,include
220525,33,f,NA,NA,NA,NA,NA,NA,NA,NA,NA,6,5,5,3,5,6,6,6,3,6,3,3,5,3,6,1,5,4,5,5,4,4,6,4,2,NA,NA,NA,NA,NA,NA,NA,NA,NA,NA,include,exclude,include,include,include,exclude,NA,5,4,4.25,NA,3,"Black People/Negative,White People/Positive",Black People/Negative,correct,859,610.825,629.0897435897435,174.1163963682978,0.10489961870741449,118,exclude,0,1,include,include
225948,23,m,3,5,4,3,2,3,4,3,5,NA,NA,NA,NA,NA,NA,NA,NA,NA,NA,NA,NA,NA,NA,NA,NA,NA,NA,NA,NA,NA,NA,NA,NA,NA,5,5,6,5,5,5,6,4,6,6,include,include,exclude,exclude,exclude,include,3.5555555555555554,NA,NA,NA,5.3,3,"White People/Negative,Black People/Positive",Black People/Positive,correct,1644,878.2051282051282,728.1012658227849,311.4003963815392,-0.48202848848795476,118,exclude,0,1,include,include
227399,16,m,2,3,2,3,4,1,3,1,2,NA,NA,NA,NA,NA,NA,NA,NA,NA,NA,NA,NA,NA,NA,NA,NA,NA,NA,NA,NA,NA,NA,NA,NA,NA,3,5,6,5,3,2,4,3,5,3,include,include,exclude,exclude,exclude,include,2.3333333333333335,NA,NA,NA,3.9,3,"White People/Negative,Black People/Positive",White People/Negative,correct,627,718.5,718.4246575342465,296.71637464897236,-2.539208220058579e-4,113,exclude,0,1,include,include
228671,18,f,5,5,6,6,5,3,6,6,6,NA,NA,NA,NA,NA,NA,NA,NA,NA,NA,NA,NA,NA,NA,NA,NA,NA,NA,NA,NA,NA,NA,NA,NA,NA,4,5,6,4,5,4,5,5,5,6,include,include,exclude,exclude,exclude,include,5.333333333333333,NA,NA,NA,4.9,3,"Black People/Negative,White People/Positive",White People/Positive,correct,1750,906.1875,706.2297297297297,580.3696486813487,-0.34453519532696464,106,exclude,0,1,include,include
232178,27,m,NA,NA,NA,NA,NA,NA,NA,NA,NA,5,5,3,3,3,2,5,2,2,4,3,2,NA,3,5,2,4,6,5,6,6,6,5,5,6,NA,NA,NA,NA,NA,NA,NA,NA,NA,NA,include,exclude,include,exclude,include,exclude,NA,3.3333333333333335,NA,5.625,NA,3,"Black People/Bad,White People/Good",White People/Good,correct,809,827.7692307692307,720.0266666666666,215.5056108245173,-0.4999524777584426,114,exclude,0,1,include,include
232474,30,m,4,6,5,4,5,3,6,2,3,NA,NA,NA,NA,NA,NA,NA,NA,NA,NA,NA,NA,NA,NA,NA,NA,NA,NA,NA,NA,NA,NA,NA,NA,NA,6,5,6,6,6,6,6,6,6,6,include,include,exclude,exclude,exclude,include,4.222222222222222,NA,NA,NA,5.9,3,"White People/Unpleasant,Black People/Pleasant",Black People/Pleasant,correct,852,692.3421052631579,659.5945945945946,245.7784704721287,-0.13323994817632698,112,exclude,0,1,include,include
233978,44,m,NA,NA,NA,NA,NA,NA,NA,NA,NA,5,6,6,3,6,6,5,5,3,4,2,5,4,3,5,3,6,2,2,4,2,1,4,2,3,NA,NA,NA,NA,NA,NA,NA,NA,NA,NA,include,exclude,include,include,include,exclude,NA,5,4,2.5,NA,3,"White People/Unpleasant,Black People/Pleasant",Black People/Pleasant,correct,940,830.225,706.7532467532468,196.6601274220425,-0.6278433501763001,117,exclude,0,1,include,include
235367,21,m,1,2,4,5,2,1,1,1,4,NA,NA,NA,NA,NA,NA,NA,NA,NA,NA,NA,NA,NA,NA,NA,NA,NA,NA,NA,NA,NA,NA,NA,NA,NA,6,5,6,6,5,5,5,4,4,6,include,include,exclude,exclude,exclude,include,2.3333333333333335,NA,NA,NA,5.2,3,"Black People/Bad,White People/Good",White People/Good,correct,2549,1221.675,1246.513888888889,847.8763811938376,0.02929541315199156,112,exclude,0,1,include,include
238241,51,f,5,5,6,5,6,2,5,1,6,NA,NA,NA,NA,NA,NA,NA,NA,NA,NA,NA,NA,NA,NA,NA,NA,NA,NA,NA,NA,NA,NA,NA,NA,NA,5,4,6,4,5,4,5,3,5,5,include,include,exclude,exclude,exclude,include,4.555555555555555,NA,NA,NA,4.6,3,"White People/Bad,Black People/Good",Black People/Good,correct,1383,1047.6486486486488,855.2784810126582,367.98590229498745,-0.5227650473462471,116,exclude,0,1,include,include
239346,20,f,NA,NA,NA,NA,NA,NA,NA,NA,NA,5,6,6,6,4,5,5,6,5,6,6,5,5,5,4,5,6,4,4,4,4,4,4,4,4,NA,NA,NA,NA,NA,NA,NA,NA,NA,NA,include,exclude,include,include,include,exclude,NA,5.333333333333333,5.25,4,NA,3,"White People/Unpleasant,Black People/Pleasant",White People/Unpleasant,correct,648,789.0769230769231,744.2236842105264,267.56678557786256,-0.1676338068999388,115,exclude,0,1,include,include
241587,41,f,5,5,2,4,6,2,5,3,5,NA,NA,NA,NA,NA,NA,NA,NA,NA,NA,NA,NA,NA,NA,NA,NA,NA,NA,NA,NA,NA,NA,NA,NA,NA,6,3,6,6,6,5,5,4,5,5,include,include,exclude,exclude,exclude,include,4.111111111111111,NA,NA,NA,5.1,3,"White People/Unpleasant,Black People/Pleasant",Black People/Pleasant,correct,1824,1312.918918918919,751.5897435897435,680.0668297352684,-0.8254029615702412,115,exclude,0,1,include,include
243747,23,f,NA,NA,NA,NA,NA,NA,NA,NA,NA,6,3,5,3,2,3,5,5,4,4,5,3,3,3,5,2,5,4,3,4,4,2,5,1,4,NA,NA,NA,NA,NA,NA,NA,NA,NA,NA,include,exclude,include,include,include,exclude,NA,4,3.75,3.375,NA,3,"Black People/Unpleasant,White People/Pleasant",White People/Pleasant,correct,726,698.3142857142857,687,267.467500987069,-0.04230153447626779,109,exclude,0,1,include,include
245717,24,m,NA,NA,NA,NA,NA,NA,NA,NA,NA,5,5,5,4,4,4,4,4,3,2,1,3,3,1,3,2,3,4,3,3,4,4,3,3,4,NA,NA,NA,NA,NA,NA,NA,NA,NA,NA,include,exclude,include,include,include,exclude,NA,4.222222222222222,2.25,3.5,NA,3,"White People/Unpleasant,Black People/Pleasant",White People/Unpleasant,correct,1228,779.3684210526316,758.4675324675325,232.7093458896276,-0.08981542406557337,115,exclude,0,1,include,include
249730,37,f,3,4,3,4,4,6,4,3,6,NA,NA,NA,NA,NA,NA,NA,NA,NA,NA,NA,NA,NA,NA,NA,NA,NA,NA,NA,NA,NA,NA,NA,NA,NA,2,1,4,1,3,1,4,4,3,1,include,include,exclude,exclude,exclude,include,4.111111111111111,NA,NA,NA,2.4,3,"Black People/Unpleasant,White People/Pleasant",White People/Pleasant,correct,1072,961.6857142857143,920.8571428571429,550.9060904662613,-0.07411167190766764,105,exclude,0,1,include,include
251939,28,m,NA,NA,NA,NA,NA,NA,NA,NA,NA,5,4,4,4,3,4,4,6,3,4,3,4,5,3,3,1,4,3,3,4,4,1,4,3,4,NA,NA,NA,NA,NA,NA,NA,NA,NA,NA,include,exclude,include,include,include,exclude,NA,4.111111111111111,3.375,3.25,NA,3,"Black People/Negative,White People/Positive",Black People/Negative,correct,966,727.2105263157895,749.48,359.9541512365355,0.061867528427465394,113,exclude,0,1,include,include
253188,32,f,3,5,5,4,6,4,6,6,6,NA,NA,NA,NA,NA,NA,NA,NA,NA,NA,NA,NA,NA,NA,NA,NA,NA,NA,NA,NA,NA,NA,NA,NA,NA,3,4,6,6,6,4,6,5,6,3,include,include,exclude,exclude,exclude,include,5,NA,NA,NA,4.9,3,"Black People/Negative,White People/Positive",Black People/Negative,correct,875,813.6388888888889,759.3333333333334,184.262453031136,-0.29471850972470875,111,exclude,0,1,include,include
253519,22,m,5,6,6,5,6,5,6,4,5,NA,NA,NA,NA,NA,NA,NA,NA,NA,NA,NA,NA,NA,NA,NA,NA,NA,NA,NA,NA,NA,NA,NA,NA,NA,5,5,5,6,6,5,5,2,6,1,include,include,exclude,exclude,exclude,include,5.333333333333333,NA,NA,NA,4.6,3,"Black People/Unpleasant,White People/Pleasant",Black People/Unpleasant,correct,1008,601.6774193548387,720.2535211267606,312.7299986069969,0.3791644623160528,102,exclude,0,1,include,include
254504,24,m,NA,NA,NA,NA,NA,NA,NA,NA,NA,4,3,4,3,2,4,4,4,4,4,3,3,4,3,6,3,4,4,1,2,2,3,4,2,1,NA,NA,NA,NA,NA,NA,NA,NA,NA,NA,include,exclude,include,include,include,exclude,NA,3.5555555555555554,3.75,2.375,NA,3,"Black People/Negative,White People/Positive",White People/Positive,correct,960,864.8421052631579,739.9230769230769,279.01586688397043,-0.4477129911469478,116,exclude,0,1,include,include
285703,33,m,NA,NA,NA,NA,NA,NA,NA,NA,NA,4,1,4,1,2,3,2,5,1,6,6,4,6,6,2,5,6,6,6,5,6,6,4,5,5,NA,NA,NA,NA,NA,NA,NA,NA,NA,NA,include,exclude,include,include,include,exclude,NA,2.5555555555555554,5.125,5.375,NA,3,"Black People/Pleasant,White People/Unpleasant",White People/Unpleasant,correct,3040,1653.3076923076924,1236.5189873417721,817.6251378231284,-0.5097552480781009,118,exclude,0,1,include,include
287257,21,f,NA,NA,NA,NA,NA,NA,NA,NA,NA,6,5,6,3,6,4,5,5,5,6,4,5,5,5,5,3,5,4,3,5,5,3,4,2,4,NA,NA,NA,NA,NA,NA,NA,NA,NA,NA,include,exclude,include,include,include,exclude,NA,5,4.75,3.75,NA,3,"White People/Positive,Black People/Negative",Black People/Negative,correct,573,670.4444444444445,636.7027027027027,210.62900278454455,-0.16019513597686574,110,exclude,0,1,include,include
289486,56,f,5,6,6,6,6,6,6,6,6,NA,NA,NA,NA,NA,NA,NA,NA,NA,NA,NA,NA,NA,NA,NA,NA,NA,NA,NA,NA,NA,NA,NA,NA,NA,4,5,5,4,5,4,5,2,4,6,include,include,exclude,exclude,exclude,include,5.888888888888889,NA,NA,NA,4.4,3,"Black People/Positive,White People/Negative",Black People/Positive,correct,1015,654.8974358974359,600.1666666666666,198.5058043903448,-0.2757136971327341,117,exclude,0,1,include,include
289105,32,m,2,4,4,4,3,3,4,5,5,NA,NA,NA,NA,NA,NA,NA,NA,NA,NA,NA,NA,NA,NA,NA,NA,NA,NA,NA,NA,NA,NA,NA,NA,NA,6,4,6,5,5,5,5,4,5,5,include,include,exclude,exclude,exclude,include,3.7777777777777777,NA,NA,NA,5,3,"Black People/Good,White People/Bad",White People/Bad,correct,1202,1035.85,777.3506493506494,586.6137721311984,-0.4406636238869894,117,exclude,0,1,include,include
291619,22,f,NA,NA,NA,NA,NA,NA,NA,NA,NA,5,1,6,3,6,4,NA,4,3,6,2,4,5,3,4,3,5,1,3,3,6,3,2,1,6,NA,NA,NA,NA,NA,NA,NA,NA,NA,NA,include,exclude,exclude,include,include,exclude,NA,NA,4,3.125,NA,3,"Black People/Positive,White People/Negative",White People/Negative,correct,1467,739.4054054054054,733.0921052631579,314.3356817608617,-0.020084579984306367,113,exclude,0,1,include,include
293517,21,f,3,3,4,4,6,3,6,4,3,NA,NA,NA,NA,NA,NA,NA,NA,NA,NA,NA,NA,NA,NA,NA,NA,NA,NA,NA,NA,NA,NA,NA,NA,NA,4,5,6,4,5,4,5,3,4,5,include,include,exclude,exclude,exclude,include,4,NA,NA,NA,4.5,3,"White People/Pleasant,Black People/Unpleasant",Black People/Unpleasant,correct,1882,1273.35,1137.1012658227849,431.11767230324625,-0.31603606841098897,119,exclude,0,1,include,include
296088,49,m,6,5,4,6,6,3,6,6,5,NA,NA,NA,NA,NA,NA,NA,NA,NA,NA,NA,NA,NA,NA,NA,NA,NA,NA,NA,NA,NA,NA,NA,NA,NA,5,3,6,4,1,5,4,4,6,4,include,include,exclude,exclude,exclude,include,5.222222222222222,NA,NA,NA,4.2,3,"Black People/Good,White People/Bad",White People/Bad,correct,1173,840.027027027027,793.1428571428571,242.10065657680494,-0.19365569076553144,114,exclude,0,1,include,include
310835,30,m,2,3,3,3,2,3,3,2,4,NA,NA,NA,NA,NA,NA,NA,NA,NA,NA,NA,NA,NA,NA,NA,NA,NA,NA,NA,NA,NA,NA,NA,NA,NA,3,4,6,4,3,5,1,5,6,6,include,include,exclude,exclude,exclude,include,2.7777777777777777,NA,NA,NA,4.3,3,"White People/Positive,Black People/Negative",White People/Positive,correct,1312,1135.9166666666667,817.3947368421053,505.7302580137522,-0.6298257317558008,112,exclude,0,1,include,include
310981,52,m,4,6,5,5,6,2,5,5,5,NA,NA,NA,NA,NA,NA,NA,NA,NA,NA,NA,NA,NA,NA,NA,NA,NA,NA,NA,NA,NA,NA,NA,NA,NA,6,2,5,6,6,5,4,2,6,5,include,include,exclude,exclude,exclude,include,4.777777777777778,NA,NA,NA,4.7,3,"Black People/Good,White People/Bad",White People/Bad,correct,7562,1704.8918918918919,1017.2876712328767,998.7404678819989,-0.688471372464959,110,exclude,0,1,include,include
311817,48,f,NA,NA,NA,NA,NA,NA,NA,NA,NA,5,5,6,3,6,6,5,6,6,5,2,6,5,5,6,6,5,1,1,3,1,1,1,1,1,NA,NA,NA,NA,NA,NA,NA,NA,NA,NA,include,exclude,include,include,include,exclude,NA,5.333333333333333,5,1.25,NA,3,"White People/Good,Black People/Bad",Black People/Bad,correct,720,934.6486486486486,781.1688311688312,372.2409054965446,-0.41231314241266853,114,exclude,0,1,include,include
316021,34,m,3,6,6,6,5,1,5,2,4,NA,NA,NA,NA,NA,NA,NA,NA,NA,NA,NA,NA,NA,NA,NA,NA,NA,NA,NA,NA,NA,NA,NA,NA,NA,6,1,6,6,5,6,2,6,6,1,include,include,exclude,exclude,exclude,include,4.222222222222222,NA,NA,NA,4.5,3,"Black People/Positive,White People/Negative",Black People/Positive,correct,857,651.2058823529412,590.6363636363636,195.30943358804984,-0.31012080473456244,100,exclude,0,1,include,include
314655,19,f,NA,NA,NA,NA,NA,NA,NA,NA,NA,6,5,6,6,6,6,6,6,2,5,3,5,5,3,6,2,4,1,2,5,4,2,4,3,4,NA,NA,NA,NA,NA,NA,NA,NA,NA,NA,include,exclude,include,include,include,exclude,NA,5.444444444444445,4.125,3.125,NA,3,"Black People/Positive,White People/Negative",Black People/Positive,correct,985,891.025,691.2857142857143,337.9156525096502,-0.5910921386175844,117,exclude,0,1,include,include
329537,17,m,2,3,2,3,4,4,2,2,4,NA,NA,NA,NA,NA,NA,NA,NA,NA,NA,NA,NA,NA,NA,NA,NA,NA,NA,NA,NA,NA,NA,NA,NA,NA,5,1,6,4,5,5,3,4,5,3,include,include,exclude,exclude,exclude,include,2.888888888888889,NA,NA,NA,4.1,3,"Black People/Pleasant,White People/Unpleasant",Black People/Pleasant,correct,6464,1061.2051282051282,786.8082191780821,711.560103722645,-0.38562716992070384,112,exclude,0,1,include,include
337414,31,f,3,4,3,5,5,2,4,3,4,NA,NA,NA,NA,NA,NA,NA,NA,NA,NA,NA,NA,NA,NA,NA,NA,NA,NA,NA,NA,NA,NA,NA,NA,NA,3,3,5,2,4,1,4,3,4,3,include,include,exclude,exclude,exclude,include,3.6666666666666665,NA,NA,NA,3.2,3,"White People/Good,Black People/Bad",Black People/Bad,correct,1461,719.4736842105264,692.4675324675325,206.15075796960255,-0.13100195220711253,115,exclude,0,1,include,include
339121,29,m,3,6,4,6,6,6,5,6,6,NA,NA,NA,NA,NA,NA,NA,NA,NA,NA,NA,NA,NA,NA,NA,NA,NA,NA,NA,NA,NA,NA,NA,NA,NA,5,1,6,4,5,6,3,6,5,5,include,include,exclude,exclude,exclude,include,5.333333333333333,NA,NA,NA,4.6,3,"White People/Positive,Black People/Negative",Black People/Negative,correct,1856,710,640.4933333333333,223.30966212026675,-0.31125687087033793,112,exclude,0,1,include,include
343954,21,f,NA,NA,NA,NA,NA,NA,NA,NA,NA,6,6,6,3,3,6,6,5,4,6,5,4,5,2,6,6,6,4,5,2,1,2,4,1,2,NA,NA,NA,NA,NA,NA,NA,NA,NA,NA,include,exclude,include,include,include,exclude,NA,5,5,2.625,NA,3,"Black People/Good,White People/Bad",White People/Bad,correct,878,979.025,897.8,373.40120947218975,-0.21752741539003911,120,include,0,1,include,include
347838,21,f,2,5,3,4,3,3,3,2,4,NA,NA,NA,NA,NA,NA,NA,NA,NA,NA,NA,NA,NA,NA,NA,NA,NA,NA,NA,NA,NA,NA,NA,NA,NA,5,2,6,4,6,4,4,3,4,NA,include,include,exclude,exclude,exclude,exclude,3.2222222222222223,NA,NA,NA,NA,3,"White People/Good,Black People/Bad",White People/Good,correct,988,838.5405405405405,579.3815789473684,306.3182656957665,-0.8460447535001625,113,exclude,0,1,include,include
348671,26,m,NA,NA,NA,NA,NA,NA,NA,NA,NA,4,2,4,2,2,3,3,4,2,2,2,2,3,2,2,2,3,4,5,4,4,4,4,3,5,NA,NA,NA,NA,NA,NA,NA,NA,NA,NA,include,exclude,include,include,include,exclude,NA,2.888888888888889,2.25,4.125,NA,3,"White People/Positive,Black People/Negative",Black People/Negative,correct,1418,797,688.7567567567568,171.00334447721724,-0.6329890422562142,112,exclude,0,1,include,include
354340,32,f,NA,NA,NA,NA,NA,NA,NA,NA,NA,5,5,6,1,5,4,4,5,5,4,3,4,3,3,4,5,4,2,3,2,2,2,2,3,3,NA,NA,NA,NA,NA,NA,NA,NA,NA,NA,include,exclude,include,include,include,exclude,NA,4.444444444444445,3.75,2.375,NA,3,"White People/Good,Black People/Bad",White People/Good,correct,4533,893.875,701.32,477.76344755855473,-0.40303418142175973,115,exclude,0,1,include,include
357132,51,f,6,4,6,6,6,6,5,5,5,NA,NA,NA,NA,NA,NA,NA,NA,NA,NA,NA,NA,NA,NA,NA,NA,NA,NA,NA,NA,NA,NA,NA,NA,NA,5,5,6,5,6,6,6,5,6,5,include,include,exclude,exclude,exclude,include,5.444444444444445,NA,NA,NA,5.5,3,"Black People/Pleasant,White People/Unpleasant",Black People/Pleasant,correct,1608,1381.7894736842106,1178.5625,376.56062713788026,-0.5396925728238647,118,exclude,0,1,include,include
368445,25,m,2,6,1,1,6,3,4,5,6,NA,NA,NA,NA,NA,NA,NA,NA,NA,NA,NA,NA,NA,NA,NA,NA,NA,NA,NA,NA,NA,NA,NA,NA,NA,6,1,4,1,3,6,6,NA,6,3,include,include,exclude,exclude,exclude,exclude,3.7777777777777777,NA,NA,NA,NA,3,"White People/Good,Black People/Bad",White People/Good,correct,757,606.3888888888889,641.6233766233767,206.44095229036733,0.1706758632121065,113,exclude,0.008849557522123894,1,include,include
361490,41,f,NA,NA,NA,NA,NA,NA,NA,NA,NA,6,1,6,2,3,5,5,6,3,6,3,6,6,4,5,2,3,3,3,4,4,2,4,2,2,NA,NA,NA,NA,NA,NA,NA,NA,NA,NA,include,exclude,include,include,include,exclude,NA,4.111111111111111,4.375,3,NA,3,"Black People/Positive,White People/Negative",White People/Negative,correct,608,587.4358974358975,589.8219178082192,106.12108463565148,0.022483942569129278,112,exclude,0,1,include,include
365480,21,f,6,6,6,6,6,5,6,2,6,NA,NA,NA,NA,NA,NA,NA,NA,NA,NA,NA,NA,NA,NA,NA,NA,NA,NA,NA,NA,NA,NA,NA,NA,NA,5,4,6,5,6,5,6,3,6,4,include,include,exclude,exclude,exclude,include,5.444444444444445,NA,NA,NA,5,3,"White People/Pleasant,Black People/Unpleasant",White People/Pleasant,correct,700,748.3684210526316,659.3157894736842,161.3741324359918,-0.5518395683042302,114,exclude,0,1,include,include
365691,32,f,3,5,5,5,3,5,5,4,5,NA,NA,NA,NA,NA,NA,NA,NA,NA,NA,NA,NA,NA,NA,NA,NA,NA,NA,NA,NA,NA,NA,NA,NA,NA,4,3,6,5,6,4,6,5,5,5,include,include,exclude,exclude,exclude,include,4.444444444444445,NA,NA,NA,4.9,3,"White People/Pleasant,Black People/Unpleasant",White People/Pleasant,correct,1063,705.5405405405405,655.2179487179487,244.4219782108276,-0.20588407061817388,115,exclude,0,1,include,include
365766,20,f,NA,NA,NA,NA,NA,NA,NA,NA,NA,4,3,4,2,3,5,3,4,2,4,3,5,5,3,4,2,4,2,3,4,4,1,1,2,3,NA,NA,NA,NA,NA,NA,NA,NA,NA,NA,include,exclude,include,include,include,exclude,NA,3.3333333333333335,3.75,2.5,NA,3,"Black People/Good,White People/Bad",Black People/Good,correct,1346,874.3142857142857,665.4864864864865,284.8050513268646,-0.7332306721910353,109,exclude,0,1,include,include
366258,25,m,5,5,6,5,6,3,6,6,6,NA,NA,NA,NA,NA,NA,NA,NA,NA,NA,NA,NA,NA,NA,NA,NA,NA,NA,NA,NA,NA,NA,NA,NA,NA,6,2,6,6,5,5,5,6,5,3,include,include,exclude,exclude,exclude,include,5.333333333333333,NA,NA,NA,4.9,3,"Black People/Positive,White People/Negative",Black People/Positive,correct,1390,1137.2972972972973,816.8815789473684,509.1493458857914,-0.6293157811928175,113,exclude,0,1,include,include
372836,26,f,2,5,4,5,5,2,6,3,5,NA,NA,NA,NA,NA,NA,NA,NA,NA,NA,NA,NA,NA,NA,NA,NA,NA,NA,NA,NA,NA,NA,NA,NA,NA,6,5,5,6,6,6,6,4,5,6,include,include,exclude,exclude,exclude,include,4.111111111111111,NA,NA,NA,5.5,3,"Black People/Pleasant,White People/Unpleasant",White People/Unpleasant,correct,1610,994.8108108108108,861.8767123287671,484.18730350012856,-0.27455097959215374,110,exclude,0,1,include,include
388154,19,f,2,5,6,5,3,4,6,4,5,NA,NA,NA,NA,NA,NA,NA,NA,NA,NA,NA,NA,NA,NA,NA,NA,NA,NA,NA,NA,NA,NA,NA,NA,NA,4,6,6,3,5,4,6,3,5,5,include,include,exclude,exclude,exclude,include,4.444444444444445,NA,NA,NA,4.7,3,"Black People/Positive,White People/Negative",Black People/Positive,correct,522,750.9,512.4324324324324,277.1412332329759,-0.860455027877798,114,exclude,0,1,include,include
491808,22,f,NA,NA,NA,NA,NA,NA,NA,NA,NA,5,5,6,5,6,5,6,6,5,2,3,5,3,2,2,3,3,2,2,4,3,2,4,4,4,NA,NA,NA,NA,NA,NA,NA,NA,NA,NA,include,exclude,include,include,include,exclude,NA,5.444444444444445,2.875,3.125,NA,3,"Black People/Pleasant,White People/Unpleasant",Black People/Pleasant,correct,694,646.7105263157895,675.3561643835617,194.14674575217296,0.14754632098926954,111,exclude,0,1,include,include
418670,17,m,4,4,5,5,5,2,4,3,4,NA,NA,NA,NA,NA,NA,NA,NA,NA,NA,NA,NA,NA,NA,NA,NA,NA,NA,NA,NA,NA,NA,NA,NA,NA,5,4,6,5,5,5,5,5,6,4,include,include,exclude,exclude,exclude,include,4,NA,NA,NA,5,3,"White People/Pleasant,Black People/Unpleasant",White People/Pleasant,correct,1032,571.921052631579,550.078947368421,99.35884078608039,-0.2198305162414684,114,exclude,0,1,include,include
394075,21,f,3,5,6,5,3,6,5,6,6,NA,NA,NA,NA,NA,NA,NA,NA,NA,NA,NA,NA,NA,NA,NA,NA,NA,NA,NA,NA,NA,NA,NA,NA,NA,5,5,6,6,6,5,6,3,5,4,include,include,exclude,exclude,exclude,include,5,NA,NA,NA,5.1,3,"White People/Pleasant,Black People/Unpleasant",Black People/Unpleasant,correct,706,710.3684210526316,760.632911392405,340.407475442109,0.1476597723786523,117,exclude,0,1,include,include
401021,20,f,NA,NA,NA,NA,NA,NA,NA,NA,NA,6,2,6,2,2,6,6,4,5,4,3,3,5,3,2,3,4,5,6,5,6,2,4,4,4,NA,NA,NA,NA,NA,NA,NA,NA,NA,NA,include,exclude,include,include,include,exclude,NA,4.333333333333333,3.375,4.5,NA,3,"Black People/Pleasant,White People/Unpleasant",Black People/Pleasant,correct,1079,684,710.6133333333333,254.40491938116966,0.10461013646304194,115,exclude,0,1,include,include
419450,52,m,5,4,6,6,4,5,4,3,6,NA,NA,NA,NA,NA,NA,NA,NA,NA,NA,NA,NA,NA,NA,NA,NA,NA,NA,NA,NA,NA,NA,NA,NA,NA,6,6,6,6,6,6,6,5,6,6,include,include,exclude,exclude,exclude,include,4.777777777777778,NA,NA,NA,5.9,3,"White People/Positive,Black People/Negative",White People/Positive,correct,839,693.4736842105264,667.8607594936709,202.9013525976149,-0.12623338577564774,117,exclude,0,1,include,include
421489,18,f,2,5,5,3,5,3,4,3,5,NA,NA,NA,NA,NA,NA,NA,NA,NA,NA,NA,NA,NA,NA,NA,NA,NA,NA,NA,NA,NA,NA,NA,NA,NA,6,6,6,4,6,6,6,5,6,6,include,include,exclude,exclude,exclude,include,3.888888888888889,NA,NA,NA,5.7,3,"White People/Positive,Black People/Negative",Black People/Negative,correct,1403,618.2972972972973,566.7066666666667,204.28956220332262,-0.2525367917685591,112,exclude,0,1,include,include
429123,43,f,NA,NA,NA,NA,NA,NA,NA,NA,NA,6,6,6,3,6,5,6,5,2,4,3,3,5,2,5,4,5,4,2,5,4,2,4,2,6,NA,NA,NA,NA,NA,NA,NA,NA,NA,NA,include,exclude,include,include,include,exclude,NA,5,3.875,3.625,NA,3,"Black People/Good,White People/Bad",Black People/Good,correct,13929,2649.75,2072.695652173913,2520.185139179031,-0.2289729983941048,97,exclude,0,1,include,include
429559,19,m,3,5,4,6,6,6,6,5,6,NA,NA,NA,NA,NA,NA,NA,NA,NA,NA,NA,NA,NA,NA,NA,NA,NA,NA,NA,NA,NA,NA,NA,NA,NA,4,5,6,3,5,5,6,3,4,4,include,include,exclude,exclude,exclude,include,5.222222222222222,NA,NA,NA,4.5,3,"White People/Pleasant,Black People/Unpleasant",White People/Pleasant,correct,3168,1797.7297297297298,1110.7333333333333,723.9766562267469,-0.9489206461115947,112,exclude,0,1,include,include
433267,34,f,NA,NA,NA,NA,NA,NA,NA,NA,NA,4,5,4,3,4,2,5,5,5,1,2,4,2,1,3,2,1,2,3,4,2,1,2,2,4,NA,NA,NA,NA,NA,NA,NA,NA,NA,NA,include,exclude,include,include,include,exclude,NA,4.111111111111111,2,2.5,NA,3,"Black People/Pleasant,White People/Unpleasant",White People/Unpleasant,correct,1353,612.9722222222222,561.1621621621622,182.15301218995776,-0.2844315305970895,110,exclude,0,1,include,include
435868,31,f,5,4,5,6,5,3,5,3,5,NA,NA,NA,NA,NA,NA,NA,NA,NA,NA,NA,NA,NA,NA,NA,NA,NA,NA,NA,NA,NA,NA,NA,NA,NA,5,6,6,5,5,5,6,6,6,6,include,include,exclude,exclude,exclude,include,4.555555555555555,NA,NA,NA,5.6,3,"Black People/Good,White People/Bad",White People/Bad,correct,640,559.375,579.6025641025641,167.0220409448379,0.12110715440990577,118,exclude,0.00847457627118644,1,include,include
442495,37,f,5,6,5,6,5,4,6,4,5,NA,NA,NA,NA,NA,NA,NA,NA,NA,NA,NA,NA,NA,NA,NA,NA,NA,NA,NA,NA,NA,NA,NA,NA,NA,4,4,5,5,5,4,4,4,5,3,include,include,exclude,exclude,exclude,include,5.111111111111111,NA,NA,NA,4.3,3,"White People/Good,Black People/Bad",White People/Good,correct,703,564.8055555555555,562.1688311688312,78.60337774176543,-0.033544670247972995,113,exclude,0,1,include,include
439554,37,m,NA,NA,NA,NA,NA,NA,NA,NA,NA,4,4,4,3,4,2,4,5,4,4,3,3,4,2,4,3,3,1,3,4,2,2,5,2,4,NA,NA,NA,NA,NA,NA,NA,NA,NA,NA,include,exclude,include,include,include,exclude,NA,3.7777777777777777,3.25,2.875,NA,3,"Black People/Good,White People/Bad",White People/Bad,correct,1759,700.425,643.8227848101266,328.8295534641747,-0.17213238467642808,119,exclude,0,1,include,include
440148,35,f,NA,NA,NA,NA,NA,NA,NA,NA,NA,4,4,6,4,6,5,4,4,4,3,3,5,4,3,4,3,3,2,3,4,1,2,1,2,1,NA,NA,NA,NA,NA,NA,NA,NA,NA,NA,include,exclude,include,include,include,exclude,NA,4.555555555555555,3.5,2,NA,3,"Black People/Pleasant,White People/Unpleasant",Black People/Pleasant,correct,933,783.6666666666666,730.2179487179487,86.22184014305189,-0.6198976716344764,117,exclude,0,1,include,include
446741,38,m,NA,NA,NA,NA,NA,NA,NA,NA,NA,4,3,4,2,4,4,4,4,3,4,3,3,3,4,4,4,4,2,2,5,3,1,5,2,3,NA,NA,NA,NA,NA,NA,NA,NA,NA,NA,include,exclude,include,include,include,exclude,NA,3.5555555555555554,3.625,2.875,NA,3,"Black People/Positive,White People/Negative",White People/Negative,correct,1711,1208.179487179487,1112.1168831168832,480.31685319200477,-0.19999840402061272,116,exclude,0,1,include,include
585230,24,f,4,5,4,4,5,5,4,3,4,NA,NA,NA,NA,NA,NA,NA,NA,NA,NA,NA,NA,NA,NA,NA,NA,NA,NA,NA,NA,NA,NA,NA,NA,NA,4,4,5,4,6,4,5,3,4,5,include,include,exclude,exclude,exclude,include,4.222222222222222,NA,NA,NA,4.4,3,"White People/Positive,Black People/Negative",White People/Positive,correct,598,602.2432432432432,558.1428571428571,89.84688453740326,-0.49083934660001627,114,exclude,0,1,include,include
448449,60,f,5,4,6,5,6,5,5,5,6,NA,NA,NA,NA,NA,NA,NA,NA,NA,NA,NA,NA,NA,NA,NA,NA,NA,NA,NA,NA,NA,NA,NA,NA,NA,5,1,6,6,4,5,4,6,6,2,include,include,exclude,exclude,exclude,include,5.222222222222222,NA,NA,NA,4.5,3,"Black People/Pleasant,White People/Unpleasant",Black People/Pleasant,correct,731,779.2564102564103,784.4545454545455,287.2495965787118,0.018096231500575256,116,exclude,0,1,include,include
448828,30,f,3,4,5,4,6,6,6,5,5,NA,NA,NA,NA,NA,NA,NA,NA,NA,NA,NA,NA,NA,NA,NA,NA,NA,NA,NA,NA,NA,NA,NA,NA,NA,5,2,6,4,4,4,4,3,5,4,include,include,exclude,exclude,exclude,include,4.888888888888889,NA,NA,NA,4.1,3,"Black People/Good,White People/Bad",Black People/Good,correct,2187,859.05,841.6582278481013,392.4120299549731,-0.04432018089224797,119,exclude,0,1,include,include
449383,42,m,NA,NA,NA,NA,NA,NA,NA,NA,NA,5,5,6,3,5,6,5,5,5,3,1,5,5,3,5,2,4,1,2,5,4,1,6,1,4,NA,NA,NA,NA,NA,NA,NA,NA,NA,NA,include,exclude,include,include,include,exclude,NA,5,3.5,3,NA,3,"White People/Pleasant,Black People/Unpleasant",Black People/Unpleasant,correct,1570,1133.225,950.275,304.5834321772324,-0.6006564398208769,120,include,0,1,include,include
449631,32,m,3,4,3,4,4,3,3,3,4,NA,NA,NA,NA,NA,NA,NA,NA,NA,NA,NA,NA,NA,NA,NA,NA,NA,NA,NA,NA,NA,NA,NA,NA,NA,4,3,6,4,5,4,4,3,4,4,include,include,exclude,exclude,exclude,include,3.4444444444444446,NA,NA,NA,4.1,3,"White People/Positive,Black People/Negative",Black People/Negative,correct,1467,759.45,803.3291139240506,282.86184253568626,0.15512560312377482,119,exclude,0,1,include,include
466546,29,f,NA,NA,NA,NA,NA,NA,NA,NA,NA,5,3,5,6,4,6,5,6,3,2,2,3,4,1,4,2,3,2,2,3,4,2,2,1,2,NA,NA,NA,NA,NA,NA,NA,NA,NA,NA,include,exclude,include,include,include,exclude,NA,4.777777777777778,2.625,2.25,NA,3,"White People/Good,Black People/Bad",Black People/Bad,correct,3753,1333.7631578947369,820.027027027027,568.9796207245663,-0.9029077881796422,112,exclude,0,1,include,include
467663,21,f,4,5,4,5,5,3,4,4,4,NA,NA,NA,NA,NA,NA,NA,NA,NA,NA,NA,NA,NA,NA,NA,NA,NA,NA,NA,NA,NA,NA,NA,NA,NA,6,5,6,6,6,6,6,4,6,2,include,include,exclude,exclude,exclude,include,4.222222222222222,NA,NA,NA,5.3,3,"White People/Pleasant,Black People/Unpleasant",Black People/Unpleasant,correct,735,500.8,503.8611111111111,105.05946213652335,0.02913693872840508,56,exclude,0,1,include,include
469605,25,m,3,4,5,5,4,4,5,3,5,NA,NA,NA,NA,NA,NA,NA,NA,NA,NA,NA,NA,NA,NA,NA,NA,NA,NA,NA,NA,NA,NA,NA,NA,NA,5,3,5,5,5,5,3,5,5,2,include,include,exclude,exclude,exclude,include,4.222222222222222,NA,NA,NA,4.3,3,"Black People/Pleasant,White People/Unpleasant",White People/Unpleasant,correct,1324,719.75,591.2051282051282,211.7701598630721,-0.6070018168659235,118,exclude,0,1,include,include
478588,28,f,NA,NA,NA,NA,NA,NA,NA,NA,NA,4,3,5,3,3,4,4,4,3,3,4,4,4,3,4,3,5,2,4,5,5,3,4,5,4,NA,NA,NA,NA,NA,NA,NA,NA,NA,NA,include,exclude,include,include,include,exclude,NA,3.6666666666666665,3.75,4,NA,3,"White People/Positive,Black People/Negative",Black People/Negative,correct,883,726.05,705.7272727272727,306.2131562372128,-0.06636791025720623,117,exclude,0,1,include,include
516095,33,f,NA,NA,NA,NA,NA,NA,NA,NA,NA,6,1,6,4,3,6,6,6,1,3,1,3,3,1,1,1,5,5,1,6,6,4,6,1,6,NA,NA,NA,NA,NA,NA,NA,NA,NA,NA,include,exclude,include,include,include,exclude,NA,4.333333333333333,2.25,4.375,NA,3,"White People/Positive,Black People/Negative",Black People/Negative,correct,642,519.8387096774194,536.3066666666666,91.66878736418087,0.1796462837871247,106,exclude,0,1,include,include
487509,19,f,2,5,4,5,5,5,6,2,4,NA,NA,NA,NA,NA,NA,NA,NA,NA,NA,NA,NA,NA,NA,NA,NA,NA,NA,NA,NA,NA,NA,NA,NA,NA,5,4,5,4,4,4,2,2,4,3,include,include,exclude,exclude,exclude,include,4.222222222222222,NA,NA,NA,3.7,3,"Black People/Good,White People/Bad",White People/Bad,correct,767,614.3076923076923,623.418918918919,212.06864824305336,0.04296357187501029,113,exclude,0,1,include,include
488298,43,m,NA,NA,NA,NA,NA,NA,NA,NA,NA,4,3,5,3,6,4,5,5,3,5,4,5,5,3,5,5,5,3,1,4,4,4,4,1,2,NA,NA,NA,NA,NA,NA,NA,NA,NA,NA,include,exclude,include,include,include,exclude,NA,4.222222222222222,4.625,2.875,NA,3,"Black People/Pleasant,White People/Unpleasant",Black People/Pleasant,correct,979,1019.71875,1156.5797101449275,908.8190095278641,0.15059209667723328,101,exclude,0,1,include,include
499594,20,f,NA,NA,NA,NA,NA,NA,NA,NA,NA,5,4,5,3,5,5,4,5,2,6,6,4,2,5,5,6,6,4,4,3,6,4,5,5,5,NA,NA,NA,NA,NA,NA,NA,NA,NA,NA,include,exclude,include,include,include,exclude,NA,4.222222222222222,5,4.5,NA,3,"White People/Pleasant,Black People/Unpleasant",Black People/Unpleasant,correct,982,609,546.6153846153846,207.04218934739188,-0.3013135418498762,117,exclude,0,1,include,include
510366,19,m,2,NA,6,6,5,6,5,3,6,NA,NA,NA,NA,NA,NA,NA,NA,NA,NA,NA,NA,NA,NA,NA,NA,NA,NA,NA,NA,NA,NA,NA,NA,NA,6,1,3,3,3,4,1,5,4,2,include,exclude,exclude,exclude,exclude,include,NA,NA,NA,NA,3.2,3,"White People/Pleasant,Black People/Unpleasant",White People/Pleasant,correct,993,685.078947368421,576.6666666666666,193.05590986248927,-0.561558984539633,116,exclude,0,1,include,include
511349,45,m,6,5,6,5,5,NA,5,5,6,NA,NA,NA,NA,NA,NA,NA,NA,NA,NA,NA,NA,NA,NA,NA,NA,NA,NA,NA,NA,NA,NA,NA,NA,NA,5,1,5,4,5,5,4,6,5,4,include,exclude,exclude,exclude,exclude,include,NA,NA,NA,NA,4.4,3,"Black People/Positive,White People/Negative",Black People/Positive,correct,4752,1487.2105263157894,790.6708860759494,819.3146356245207,-0.8501491490004986,117,exclude,0,1,include,include
519468,27,f,3,5,4,5,5,6,5,4,5,NA,NA,NA,NA,NA,NA,NA,NA,NA,NA,NA,NA,NA,NA,NA,NA,NA,NA,NA,NA,NA,NA,NA,NA,NA,5,2,5,5,5,5,4,5,6,4,include,include,exclude,exclude,exclude,include,4.666666666666667,NA,NA,NA,4.6,3,"White People/Positive,Black People/Negative",Black People/Negative,correct,551,546.3428571428572,537.8923076923077,178.32873825855688,-0.047387479623711176,100,exclude,0.01,1,include,include
522741,46,m,NA,NA,NA,NA,NA,NA,NA,NA,NA,5,2,6,2,5,5,5,5,2,6,6,4,5,6,6,6,6,2,2,4,5,1,2,2,2,NA,NA,NA,NA,NA,NA,NA,NA,NA,NA,include,exclude,include,include,include,exclude,NA,4.111111111111111,5.625,2.5,NA,3,"Black People/Good,White People/Bad",White People/Bad,correct,856,707.3157894736842,656.8947368421053,273.45025691292454,-0.18438839005236168,114,exclude,0,1,include,include
527128,26,f,NA,NA,NA,NA,NA,NA,NA,NA,NA,5,3,5,3,3,5,5,5,3,6,2,5,5,4,6,3,6,2,1,3,2,2,5,1,3,NA,NA,NA,NA,NA,NA,NA,NA,NA,NA,include,exclude,include,include,include,exclude,NA,4.111111111111111,4.625,2.375,NA,3,"White People/Positive,Black People/Negative",Black People/Negative,correct,875,579.1891891891892,517.0769230769231,118.88676340170746,-0.5224489618107815,102,exclude,0,1,include,include
539125,32,m,2,6,6,5,6,5,5,4,6,NA,NA,NA,NA,NA,NA,NA,NA,NA,NA,NA,NA,NA,NA,NA,NA,NA,NA,NA,NA,NA,NA,NA,NA,NA,5,6,5,3,6,3,6,2,5,4,include,include,exclude,exclude,exclude,include,5,NA,NA,NA,4.5,3,"Black People/Good,White People/Bad",White People/Bad,correct,2147,885.5263157894736,689.7272727272727,342.7997999157425,-0.5711760716030954,115,exclude,0,1,include,include
559109,58,f,NA,NA,NA,NA,NA,NA,NA,NA,NA,6,5,6,3,5,6,6,5,6,4,4,4,6,4,6,3,3,1,2,4,1,1,4,1,1,NA,NA,NA,NA,NA,NA,NA,NA,NA,NA,include,exclude,include,include,include,exclude,NA,5.333333333333333,4.25,1.875,NA,3,"Black People/Pleasant,White People/Unpleasant",White People/Unpleasant,correct,1107,905.6153846153846,768.4473684210526,426.8033552383527,-0.3213845779579899,115,exclude,0,1,include,include
548429,19,m,5,5,4,6,5,5,5,3,5,NA,NA,NA,NA,NA,NA,NA,NA,NA,NA,NA,NA,NA,NA,NA,NA,NA,NA,NA,NA,NA,NA,NA,NA,NA,5,5,6,5,6,6,5,2,5,6,include,include,exclude,exclude,exclude,include,4.777777777777778,NA,NA,NA,5.1,3,"Black People/Good,White People/Bad",White People/Bad,correct,1434,954.4358974358975,666.253164556962,327.06176394665493,-0.8811263334528434,118,exclude,0,1,include,include
550775,17,m,NA,NA,NA,NA,NA,NA,NA,NA,NA,5,2,5,3,2,4,5,5,2,6,3,4,4,2,5,2,5,3,4,5,5,4,5,5,5,NA,NA,NA,NA,NA,NA,NA,NA,NA,NA,include,exclude,include,include,include,exclude,NA,3.6666666666666665,3.875,4.5,NA,3,"White People/Good,Black People/Bad",Black People/Bad,correct,886,744.325,744.9875,298.39905415099304,0.00222018130012127,120,include,0,1,include,include
555831,18,f,1,5,1,5,6,4,5,2,5,NA,NA,NA,NA,NA,NA,NA,NA,NA,NA,NA,NA,NA,NA,NA,NA,NA,NA,NA,NA,NA,NA,NA,NA,NA,5,6,6,5,6,5,6,3,4,6,include,include,exclude,exclude,exclude,include,3.7777777777777777,NA,NA,NA,5.2,3,"White People/Positive,Black People/Negative",White People/Positive,correct,1152,621.921052631579,605.078947368421,177.48309789614856,-0.09489413618987433,114,exclude,0,1,include,include
557720,36,m,NA,NA,NA,NA,NA,NA,NA,NA,NA,6,6,6,6,5,6,6,6,5,6,3,5,6,3,6,2,4,1,2,5,3,2,5,2,2,NA,NA,NA,NA,NA,NA,NA,NA,NA,NA,include,exclude,include,include,include,exclude,NA,5.777777777777778,4.375,2.75,NA,3,"Black People/Pleasant,White People/Unpleasant",White People/Unpleasant,correct,1295,690.3076923076923,576.8552631578947,142.19160052049924,-0.7978841839778121,115,exclude,0,1,include,include
559640,28,m,NA,NA,NA,NA,NA,NA,NA,NA,NA,6,5,6,5,4,6,5,4,4,3,3,2,5,2,6,3,4,3,2,5,4,1,3,1,2,NA,NA,NA,NA,NA,NA,NA,NA,NA,NA,include,exclude,include,include,include,exclude,NA,5,3.5,2.625,NA,3,"White People/Pleasant,Black People/Unpleasant",White People/Pleasant,correct,698,1157.6486486486488,901.5890410958904,661.2757219196344,-0.387220638933237,110,exclude,0,1,include,include
568128,39,m,6,6,6,6,6,4,6,5,6,NA,NA,NA,NA,NA,NA,NA,NA,NA,NA,NA,NA,NA,NA,NA,NA,NA,NA,NA,NA,NA,NA,NA,NA,NA,6,4,4,4,6,6,6,6,4,6,include,include,exclude,exclude,exclude,include,5.666666666666667,NA,NA,NA,5.2,3,"Black People/Good,White People/Bad",White People/Bad,correct,904,716.6923076923077,678,235.54274758872234,-0.1642687286635027,117,exclude,0,1,include,include
568742,21,f,2,3,1,6,6,6,6,3,5,NA,NA,NA,NA,NA,NA,NA,NA,NA,NA,NA,NA,NA,NA,NA,NA,NA,NA,NA,NA,NA,NA,NA,NA,NA,6,4,4,5,1,5,4,1,5,6,include,include,exclude,exclude,exclude,include,4.222222222222222,NA,NA,NA,4.1,3,"White People/Pleasant,Black People/Unpleasant",Black People/Unpleasant,correct,3315,851.4444444444445,663.2337662337662,349.3871639438087,-0.5386880161428822,113,exclude,0,1,include,include
575534,30,m,NA,NA,NA,NA,NA,NA,NA,NA,NA,6,2,5,2,4,5,2,4,1,2,4,2,1,1,1,1,3,4,2,4,2,2,4,2,3,NA,NA,NA,NA,NA,NA,NA,NA,NA,NA,include,exclude,include,include,include,exclude,NA,3.4444444444444446,1.875,2.875,NA,3,"White People/Positive,Black People/Negative",White People/Positive,correct,2185,1247.55,1020.5897435897435,602.1791866648855,-0.37689820810190255,118,exclude,0,1,include,include
578307,22,m,5,6,5,6,5,5,6,6,4,NA,NA,NA,NA,NA,NA,NA,NA,NA,NA,NA,NA,NA,NA,NA,NA,NA,NA,NA,NA,NA,NA,NA,NA,NA,5,4,5,5,6,6,5,3,4,4,include,include,exclude,exclude,exclude,include,5.333333333333333,NA,NA,NA,4.7,3,"White People/Good,Black People/Bad",Black People/Bad,correct,1444,857.85,894.2222222222222,245.9860299855501,0.14786295882070521,56,exclude,0,1,include,include
581474,22,f,NA,NA,NA,NA,NA,NA,NA,NA,NA,6,6,6,6,3,5,6,6,3,4,1,2,1,3,5,3,4,3,2,4,5,1,2,2,1,NA,NA,NA,NA,NA,NA,NA,NA,NA,NA,include,exclude,include,include,include,exclude,NA,5.222222222222222,2.875,2.5,NA,3,"Black People/Positive,White People/Negative",Black People/Positive,correct,592,683.9166666666666,722.8026315789474,330.86171519492035,0.11752935781455374,112,exclude,0,1,include,include
593293,29,f,5,5,6,6,1,5,6,3,6,NA,NA,NA,NA,NA,NA,NA,NA,NA,NA,NA,NA,NA,NA,NA,NA,NA,NA,NA,NA,NA,NA,NA,NA,NA,6,5,6,5,5,6,6,5,6,6,include,include,exclude,exclude,exclude,include,4.777777777777778,NA,NA,NA,5.6,3,"Black People/Pleasant,White People/Unpleasant",Black People/Pleasant,correct,647,927.7777777777778,682.4166666666666,293.02211199326837,-0.8373467430224102,108,exclude,0,1,include,include
593817,22,f,NA,NA,NA,NA,NA,NA,NA,NA,NA,6,5,6,3,5,6,5,6,4,5,3,5,5,4,5,3,5,4,3,6,4,2,5,3,4,NA,NA,NA,NA,NA,NA,NA,NA,NA,NA,include,exclude,include,include,include,exclude,NA,5.111111111111111,4.375,3.875,NA,3,"White People/Pleasant,Black People/Unpleasant",Black People/Unpleasant,correct,5736,1650.875,1386.076923076923,1757.4079006899633,-0.1506753650186257,118,exclude,0,1,include,include
597411,53,f,5,6,6,6,5,6,5,1,6,NA,NA,NA,NA,NA,NA,NA,NA,NA,NA,NA,NA,NA,NA,NA,NA,NA,NA,NA,NA,NA,NA,NA,NA,NA,5,6,6,4,5,5,6,6,5,6,include,include,exclude,exclude,exclude,include,5.111111111111111,NA,NA,NA,5.4,3,"White People/Good,Black People/Bad",White People/Good,correct,947,953.275,794.725,419.33401905618763,-0.37809954068800566,120,include,0,1,include,include
627581,23,f,3,5,5,5,5,3,4,4,5,NA,NA,NA,NA,NA,NA,NA,NA,NA,NA,NA,NA,NA,NA,NA,NA,NA,NA,NA,NA,NA,NA,NA,NA,NA,4,4,6,6,5,5,6,5,6,4,include,include,exclude,exclude,exclude,include,4.333333333333333,NA,NA,NA,5.1,3,"Black People/Pleasant,White People/Unpleasant",White People/Unpleasant,correct,1797,695.675,792.078947368421,437.8501618623414,0.22017565771445383,116,exclude,0,1,include,include
628624,21,f,NA,NA,NA,NA,NA,NA,NA,NA,NA,6,6,6,6,5,6,6,6,5,5,3,5,5,5,1,2,5,1,1,1,1,2,6,1,1,NA,NA,NA,NA,NA,NA,NA,NA,NA,NA,include,exclude,include,include,include,exclude,NA,5.777777777777778,3.875,1.75,NA,3,"Black People/Positive,White People/Negative",White People/Negative,correct,604,600.974358974359,599.7361111111111,205.2445492078291,-0.006033036531431001,111,exclude,0,1,include,include
629563,42,m,2,6,6,4,5,1,4,4,3,NA,NA,NA,NA,NA,NA,NA,NA,NA,NA,NA,NA,NA,NA,NA,NA,NA,NA,NA,NA,NA,NA,NA,NA,NA,6,2,2,1,4,4,2,3,5,2,include,include,exclude,exclude,exclude,include,3.888888888888889,NA,NA,NA,3.1,3,"White People/Positive,Black People/Negative",White People/Positive,correct,1691,596.7307692307693,398.8958333333333,372.5037434368827,-0.531095161815353,74,exclude,0.40540540540540543,1,exclude,exclude
630625,28,f,3,4,6,4,5,3,3,4,6,NA,NA,NA,NA,NA,NA,NA,NA,NA,NA,NA,NA,NA,NA,NA,NA,NA,NA,NA,NA,NA,NA,NA,NA,NA,4,4,6,4,5,5,6,6,5,2,include,include,exclude,exclude,exclude,include,4.222222222222222,NA,NA,NA,4.7,3,"White People/Pleasant,Black People/Unpleasant",Black People/Unpleasant,correct,1262,918.4358974358975,807.2375,395.5394742103724,-0.28113097348345895,238,include,0,1,include,include
643556,27,f,NA,NA,NA,NA,NA,NA,NA,NA,NA,3,3,4,2,3,3,3,4,3,5,3,5,4,4,5,3,6,3,3,4,3,2,4,3,3,NA,NA,NA,NA,NA,NA,NA,NA,NA,NA,include,exclude,include,include,include,exclude,NA,3.111111111111111,4.375,3.125,NA,3,"White People/Positive,Black People/Negative",White People/Positive,correct,1712,682.925,621.0410958904109,250.5776840162107,-0.2469649456317329,113,exclude,0.008849557522123894,1,include,include
645951,20,f,NA,NA,NA,NA,NA,NA,NA,NA,NA,6,4,6,5,5,6,6,5,4,5,2,5,5,1,5,1,4,4,2,6,5,3,6,3,5,NA,NA,NA,NA,NA,NA,NA,NA,NA,NA,include,exclude,include,include,include,exclude,NA,5.222222222222222,3.5,4.25,NA,3,"White People/Pleasant,Black People/Unpleasant",Black People/Unpleasant,correct,756,769.8571428571429,622.5394736842105,272.1278274332753,-0.5413546661597999,111,exclude,0,1,include,include
648762,19,f,NA,NA,NA,NA,NA,NA,NA,NA,NA,6,5,6,5,5,6,5,5,5,5,5,5,5,5,4,3,5,2,3,4,5,2,5,2,5,NA,NA,NA,NA,NA,NA,NA,NA,NA,NA,include,exclude,include,include,include,exclude,NA,5.333333333333333,4.625,3.5,NA,3,"White People/Good,Black People/Bad",White People/Good,correct,548,579.0833333333334,529.5,147.62325490724047,-0.33587752393407944,108,exclude,0.009259259259259259,1,include,include
652654,29,m,2,5,4,6,4,3,4,3,4,NA,NA,NA,NA,NA,NA,NA,NA,NA,NA,NA,NA,NA,NA,NA,NA,NA,NA,NA,NA,NA,NA,NA,NA,NA,5,5,6,5,6,5,6,2,NA,4,include,include,exclude,exclude,exclude,exclude,3.888888888888889,NA,NA,NA,NA,3,"White People/Good,Black People/Bad",White People/Good,correct,559,866.4358974358975,715.8684210526316,341.97811363587243,-0.44028395496556666,115,exclude,0,1,include,include
662985,15,f,NA,NA,NA,NA,NA,NA,NA,NA,NA,5,5,6,3,6,6,6,5,3,5,3,6,5,3,4,2,4,1,3,4,2,2,4,2,3,NA,NA,NA,NA,NA,NA,NA,NA,NA,NA,include,exclude,include,include,include,exclude,NA,5,4,2.625,NA,3,"White People/Positive,Black People/Negative",Black People/Negative,correct,531,563.5675675675676,568.3194444444445,178.99210114748254,0.026547969694827412,109,exclude,0,1,include,include
659647,51,f,NA,NA,NA,NA,NA,NA,NA,NA,NA,5,2,3,1,1,1,2,5,1,4,3,3,5,4,4,2,5,2,5,5,4,3,6,2,3,NA,NA,NA,NA,NA,NA,NA,NA,NA,NA,include,exclude,include,include,include,exclude,NA,2.3333333333333335,3.75,3.75,NA,3,"White People/Pleasant,Black People/Unpleasant",Black People/Unpleasant,correct,2247,787.4615384615385,760.379746835443,290.226261721612,-0.09331268461181695,118,exclude,0,1,include,include
669471,26,m,4,4,6,6,4,2,3,3,2,NA,NA,NA,NA,NA,NA,NA,NA,NA,NA,NA,NA,NA,NA,NA,NA,NA,NA,NA,NA,NA,NA,NA,NA,NA,3,3,4,4,3,4,4,3,5,3,include,include,exclude,exclude,exclude,include,3.7777777777777777,NA,NA,NA,3.6,3,"White People/Good,Black People/Bad",White People/Good,correct,1917,1148.2820512820513,850.2933333333333,384.5006715446126,-0.7750018140453185,114,exclude,0,1,include,include
201268,NA,NA,2,4,5,2,5,5,5,5,5,NA,NA,NA,NA,NA,NA,NA,NA,NA,NA,NA,NA,NA,NA,NA,NA,NA,NA,NA,NA,NA,NA,NA,NA,NA,6,5,5,6,6,6,4,1,3,5,include,include,exclude,exclude,exclude,include,4.222222222222222,NA,NA,NA,4.7,3,"White People/Unpleasant,Black People/Pleasant",White People/Unpleasant,correct,1408,1053.775,657.1948051948052,446.5999542734953,-0.8879987358044631,117,exclude,0,1,include,exclude
196719,NA,NA,NA,NA,NA,NA,NA,NA,NA,NA,NA,6,1,6,1,1,6,5,4,1,6,3,6,6,6,6,3,6,6,1,5,6,1,4,1,4,NA,NA,NA,NA,NA,NA,NA,NA,NA,NA,include,exclude,include,include,include,exclude,NA,3.4444444444444446,5.25,3.5,NA,3,"White People/Bad,Black People/Good",Black People/Good,correct,1177,680.1,671.2987012987013,250.2157504048519,-0.03517483886229432,117,exclude,0,1,include,exclude
194849,NA,NA,NA,NA,NA,NA,NA,NA,NA,NA,NA,6,2,6,2,3,4,5,5,2,6,4,5,5,4,6,3,5,3,4,5,6,3,4,2,4,NA,NA,NA,NA,NA,NA,NA,NA,NA,NA,include,exclude,include,include,include,exclude,NA,3.888888888888889,4.75,3.875,NA,3,"Black People/Unpleasant,White People/Pleasant",White People/Pleasant,correct,996,742.575,687.9473684210526,183.98524544030735,-0.2969131108758989,116,exclude,0,1,include,exclude
193446,NA,NA,NA,NA,NA,NA,NA,NA,NA,NA,NA,6,6,6,5,6,6,5,5,3,2,3,5,6,3,6,2,4,2,2,4,4,2,1,2,2,NA,NA,NA,NA,NA,NA,NA,NA,NA,NA,include,exclude,include,include,include,exclude,NA,5.333333333333333,3.875,2.375,NA,3,"White People/Negative,Black People/Positive",Black People/Positive,correct,1047,943,796.2112676056338,369.5014059661871,-0.3972616342569445,105,exclude,0,1,include,exclude
193083,NA,NA,NA,NA,NA,NA,NA,NA,NA,NA,NA,5,3,4,6,2,5,5,5,3,4,3,4,4,3,3,3,3,1,2,2,2,1,3,2,2,NA,NA,NA,NA,NA,NA,NA,NA,NA,NA,include,exclude,include,include,include,exclude,NA,4.222222222222222,3.375,1.875,NA,3,"White People/Unpleasant,Black People/Pleasant",Black People/Pleasant,correct,781,637.2727272727273,595.8630136986301,139.4440533875763,-0.29696292217640413,106,exclude,0,1,include,exclude
186334,NA,NA,NA,NA,NA,NA,NA,NA,NA,NA,NA,4,3,5,3,3,4,5,4,2,4,4,2,4,3,4,2,4,4,3,3,3,4,4,3,4,NA,NA,NA,NA,NA,NA,NA,NA,NA,NA,include,exclude,include,include,include,exclude,NA,3.6666666666666665,3.375,3.5,NA,3,"White People/Unpleasant,Black People/Pleasant",Black People/Pleasant,correct,813,561.4615384615385,503.8378378378378,173.0008901601588,-0.33308326084538886,113,exclude,0,1,include,exclude
181481,NA,NA,4,4,5,5,5,3,5,4,5,NA,NA,NA,NA,NA,NA,NA,NA,NA,NA,NA,NA,NA,NA,NA,NA,NA,NA,NA,NA,NA,NA,NA,NA,NA,3,3,4,4,3,3,4,4,4,3,include,include,exclude,exclude,exclude,include,4.444444444444445,NA,NA,NA,3.5,3,"Black People/Unpleasant,White People/Pleasant",White People/Pleasant,correct,1412,669.8378378378378,573.987012987013,168.5619535956111,-0.5686385498401134,114,exclude,0,1,include,exclude
180366,NA,NA,4,5,6,6,6,5,6,2,5,NA,NA,NA,NA,NA,NA,NA,NA,NA,NA,NA,NA,NA,NA,NA,NA,NA,NA,NA,NA,NA,NA,NA,NA,NA,5,5,1,4,6,6,1,4,6,6,include,include,exclude,exclude,exclude,include,5,NA,NA,NA,4.4,3,"Black People/Negative,White People/Positive",White People/Positive,correct,3160,1320.1842105263158,823.4545454545455,583.5417857473414,-0.8512323833598466,115,exclude,0,1,include,exclude
179098,NA,NA,3,4,0,5,2,5,5,5,3,NA,NA,NA,NA,NA,NA,NA,NA,NA,NA,NA,NA,NA,NA,NA,NA,NA,NA,NA,NA,NA,NA,NA,NA,NA,5,0,6,3,6,7,5,6,7,5,exclude,include,exclude,exclude,exclude,include,3.5555555555555554,NA,NA,NA,5,3,"White People/Negative,Black People/Positive",Black People/Positive,correct,1430,689.6666666666666,710.6363636363636,289.99403499009264,0.07231078725606686,116,exclude,0,1,include,exclude
175558,NA,NA,NA,NA,NA,NA,NA,NA,NA,NA,NA,5,2,3,2,3,3,4,6,2,6,5,3,5,3,5,2,5,1,3,4,5,2,4,2,5,NA,NA,NA,NA,NA,NA,NA,NA,NA,NA,include,exclude,include,include,include,exclude,NA,3.3333333333333335,4.25,3.25,NA,3,"White People/Bad,Black People/Good",Black People/Good,correct,880,983.625,826.922077922078,402.67250798692015,-0.3891572406105563,117,exclude,0,1,include,exclude
173471,NA,NA,5,4,3,5,4,4,5,3,6,NA,NA,NA,NA,NA,NA,NA,NA,NA,NA,NA,NA,NA,NA,NA,NA,NA,NA,NA,NA,NA,NA,NA,NA,NA,4,5,5,4,6,5,6,5,5,5,include,include,exclude,exclude,exclude,include,4.333333333333333,NA,NA,NA,5,3,"White People/Unpleasant,Black People/Pleasant",Black People/Pleasant,correct,739,705.9473684210526,662.6533333333333,216.3091558777883,-0.2001488790986722,113,exclude,0,1,include,exclude
173044,NA,NA,6,6,2,5,6,2,6,2,3,NA,NA,NA,NA,NA,NA,NA,NA,NA,NA,NA,NA,NA,NA,NA,NA,NA,NA,NA,NA,NA,NA,NA,NA,NA,6,5,6,6,6,6,6,6,6,6,include,include,exclude,exclude,exclude,include,4.222222222222222,NA,NA,NA,5.9,3,"Black People/Bad,White People/Good",White People/Good,correct,882,792,656.2253521126761,531.8791629810304,-0.25527348566607855,107,exclude,0,1,include,exclude
170731,NA,NA,2,6,5,5,5,3,5,6,6,NA,NA,NA,NA,NA,NA,NA,NA,NA,NA,NA,NA,NA,NA,NA,NA,NA,NA,NA,NA,NA,NA,NA,NA,NA,5,5,6,5,6,6,6,5,6,5,include,include,exclude,exclude,exclude,include,4.777777777777778,NA,NA,NA,5.5,3,"Black People/Unpleasant,White People/Pleasant",Black People/Unpleasant,correct,2787,977.4615384615385,902.1333333333333,465.09363353219675,-0.16196352669056785,114,exclude,0,1,include,exclude
164811,NA,NA,2,4,4,4,5,6,5,3,4,NA,NA,NA,NA,NA,NA,NA,NA,NA,NA,NA,NA,NA,NA,NA,NA,NA,NA,NA,NA,NA,NA,NA,NA,NA,5,6,6,6,6,5,5,4,4,6,include,include,exclude,exclude,exclude,include,4.111111111111111,NA,NA,NA,5.3,3,"White People/Unpleasant,Black People/Pleasant",White People/Unpleasant,correct,1115,754.8484848484849,688.5147058823529,426.63023129804776,-0.15548307199025135,101,exclude,0,1,include,exclude
164203,NA,NA,NA,NA,NA,NA,NA,NA,NA,NA,NA,3,6,6,6,1,6,5,6,4,2,2,5,4,3,5,3,6,4,1,4,3,1,4,1,1,NA,NA,NA,NA,NA,NA,NA,NA,NA,NA,include,exclude,include,include,include,exclude,NA,4.777777777777778,3.75,2.375,NA,3,"Black People/Negative,White People/Positive",Black People/Negative,correct,853,816.825,764.3717948717949,423.13976247006696,-0.1239618910357442,118,exclude,0,1,include,exclude
163143,NA,NA,3,4,6,5,2,4,5,5,5,NA,NA,NA,NA,NA,NA,NA,NA,NA,NA,NA,NA,NA,NA,NA,NA,NA,NA,NA,NA,NA,NA,NA,NA,NA,1,1,4,4,3,1,3,2,3,1,include,include,exclude,exclude,exclude,include,4.333333333333333,NA,NA,NA,2.3,3,"Black People/Bad,White People/Good",Black People/Bad,correct,656,719.6052631578947,605.8717948717949,144.7673714242455,-0.7856291591618398,116,exclude,0,1,include,exclude
162402,NA,NA,1,5,2,6,1,1,1,1,5,NA,NA,NA,NA,NA,NA,NA,NA,NA,NA,NA,NA,NA,NA,NA,NA,NA,NA,NA,NA,NA,NA,NA,NA,NA,2,4,6,4,5,4,4,5,2,NA,include,include,exclude,exclude,exclude,exclude,2.5555555555555554,NA,NA,NA,NA,3,"Black People/Bad,White People/Good",White People/Good,correct,3660,1907.939393939394,1095.873417721519,727.1641183967035,-1.1167574907413864,112,exclude,0,1,include,exclude
214776,48,m,NA,NA,NA,NA,NA,NA,NA,NA,NA,6,3,6,2,3,5,6,3,4,4,3,3,5,3,4,4,5,2,2,4,2,1,4,1,3,NA,NA,NA,NA,NA,NA,NA,NA,NA,NA,include,exclude,include,include,include,exclude,NA,4.222222222222222,3.875,2.375,NA,3,"White People/Unpleasant,Black People/Pleasant",White People/Unpleasant,correct,4663,1492.5,1006.0759493670886,643.0246521857584,-0.7564625228278061,119,exclude,0,1,include,include
233700,36,m,3,5,3,4,4,3,4,1,4,NA,NA,NA,NA,NA,NA,NA,NA,NA,NA,NA,NA,NA,NA,NA,NA,NA,NA,NA,NA,NA,NA,NA,NA,NA,6,4,6,5,6,4,5,5,6,4,include,include,exclude,exclude,exclude,include,3.4444444444444446,NA,NA,NA,5.1,3,"White People/Bad,Black People/Good",White People/Bad,correct,969,1478.45,1026.820512820513,705.1452850999237,-0.6404772133100035,118,exclude,0,1,include,include
246726,23,f,5,5,6,6,6,6,6,5,5,NA,NA,NA,NA,NA,NA,NA,NA,NA,NA,NA,NA,NA,NA,NA,NA,NA,NA,NA,NA,NA,NA,NA,NA,NA,4,2,5,4,4,5,5,3,6,3,include,include,exclude,exclude,exclude,include,5.555555555555555,NA,NA,NA,4.1,3,"Black People/Unpleasant,White People/Pleasant",Black People/Unpleasant,correct,534,631,609.2816901408451,199.26415255186225,-0.10899255877698495,108,exclude,0,1,include,include
298159,29,m,NA,NA,NA,NA,NA,NA,NA,NA,NA,5,6,5,3,4,4,4,5,3,4,2,4,6,3,5,6,6,2,3,1,1,1,6,2,4,NA,NA,NA,NA,NA,NA,NA,NA,NA,NA,include,exclude,include,include,include,exclude,NA,4.333333333333333,4.5,2.5,NA,3,"White People/Good,Black People/Bad",Black People/Bad,correct,4542,1314.7,885.7368421052631,716.4451264335635,-0.5987383291028849,116,exclude,0,1,include,include
343463,41,f,3,5,5,4,5,3,6,5,5,NA,NA,NA,NA,NA,NA,NA,NA,NA,NA,NA,NA,NA,NA,NA,NA,NA,NA,NA,NA,NA,NA,NA,NA,NA,4,5,6,5,5,3,5,3,5,5,include,include,exclude,exclude,exclude,include,4.555555555555555,NA,NA,NA,4.6,3,"White People/Positive,Black People/Negative",Black People/Negative,correct,840,522.25,500.9384615384615,160.62108968056413,-0.13268206873656435,97,exclude,0,1,include,include
343750,27,m,3,4,5,5,5,3,5,4,5,NA,NA,NA,NA,NA,NA,NA,NA,NA,NA,NA,NA,NA,NA,NA,NA,NA,NA,NA,NA,NA,NA,NA,NA,NA,4,5,6,2,4,4,6,3,5,5,include,include,exclude,exclude,exclude,include,4.333333333333333,NA,NA,NA,4.4,3,"White People/Positive,Black People/Negative",Black People/Negative,correct,568,780.025,657.2658227848101,253.703277356002,-0.4838691028927132,119,exclude,0,1,include,include
348917,31,f,3,6,6,6,6,6,5,5,6,NA,NA,NA,NA,NA,NA,NA,NA,NA,NA,NA,NA,NA,NA,NA,NA,NA,NA,NA,NA,NA,NA,NA,NA,NA,5,5,6,4,6,4,6,6,5,6,include,include,exclude,exclude,exclude,include,5.444444444444445,NA,NA,NA,5.3,3,"White People/Pleasant,Black People/Unpleasant",Black People/Unpleasant,correct,794,824.5277777777778,669.4571428571429,329.59732149946643,-0.4704851186749888,106,exclude,0,1,include,include
350255,26,m,3,5,5,6,1,4,6,6,6,NA,NA,NA,NA,NA,NA,NA,NA,NA,NA,NA,NA,NA,NA,NA,NA,NA,NA,NA,NA,NA,NA,NA,NA,NA,5,1,6,4,5,5,2,6,5,3,include,include,exclude,exclude,exclude,include,4.666666666666667,NA,NA,NA,4.2,3,"Black People/Positive,White People/Negative",White People/Negative,correct,1388,863.6216216216217,829.1388888888889,345.73253348431086,-0.09973817732804588,109,exclude,0,1,include,include
353512,42,m,5,6,6,4,3,5,5,5,6,NA,NA,NA,NA,NA,NA,NA,NA,NA,NA,NA,NA,NA,NA,NA,NA,NA,NA,NA,NA,NA,NA,NA,NA,NA,6,6,6,6,6,6,6,6,6,6,include,include,exclude,exclude,exclude,include,5,NA,NA,NA,6,3,"White People/Good,Black People/Bad",White People/Good,correct,1101,1232.55,895.3291139240506,545.5915299055044,-0.6180830668950368,119,exclude,0,1,include,include
360521,29,m,4,6,3,6,6,3,6,3,6,NA,NA,NA,NA,NA,NA,NA,NA,NA,NA,NA,NA,NA,NA,NA,NA,NA,NA,NA,NA,NA,NA,NA,NA,NA,4,4,6,4,6,4,6,5,6,3,include,include,exclude,exclude,exclude,include,4.777777777777778,NA,NA,NA,4.8,3,"Black People/Positive,White People/Negative",White People/Negative,correct,732,1110.9,837.8125,348.39996806127584,-0.7838333095138804,120,include,0,1,include,include
450960,38,f,NA,NA,NA,NA,NA,NA,NA,NA,NA,5,3,6,3,4,5,6,6,3,4,3,5,5,3,5,3,5,2,3,4,2,2,4,2,2,NA,NA,NA,NA,NA,NA,NA,NA,NA,NA,include,exclude,include,include,include,exclude,NA,4.555555555555555,4.125,2.625,NA,3,"Black People/Good,White People/Bad",Black People/Good,correct,1112,950.425,927.4556962025316,188.33515235124457,-0.12195972717100974,119,exclude,0,1,include,include
453001,20,m,6,6,5,6,6,6,5,4,6,NA,NA,NA,NA,NA,NA,NA,NA,NA,NA,NA,NA,NA,NA,NA,NA,NA,NA,NA,NA,NA,NA,NA,NA,NA,5,3,6,6,5,6,5,6,6,2,include,include,exclude,exclude,exclude,include,5.555555555555555,NA,NA,NA,5,3,"White People/Good,Black People/Bad",White People/Good,correct,708,735.1621621621622,723.7323943661971,356.2360688160459,-0.03208481340463926,108,exclude,0,1,include,include
455618,25,f,NA,NA,NA,NA,NA,NA,NA,NA,NA,4,4,4,6,6,2,4,2,1,3,1,4,6,1,1,1,1,3,4,6,6,1,2,6,5,NA,NA,NA,NA,NA,NA,NA,NA,NA,NA,include,exclude,include,include,include,exclude,NA,3.6666666666666665,2.25,4.125,NA,3,"White People/Positive,Black People/Negative",Black People/Negative,correct,2648,930.3428571428572,684.9102564102565,378.88960691581957,-0.6477680998706573,113,exclude,0,1,include,include
462128,44,f,NA,NA,NA,NA,NA,NA,NA,NA,NA,5,3,6,3,3,3,5,5,2,5,5,1,4,4,5,3,5,2,3,4,5,2,4,1,4,NA,NA,NA,NA,NA,NA,NA,NA,NA,NA,include,exclude,include,include,include,exclude,NA,3.888888888888889,4,3.125,NA,3,"White People/Positive,Black People/Negative",White People/Positive,correct,1503,953.6923076923077,910.0704225352113,376.5587951283178,-0.11584349036976202,110,exclude,0,1,include,include
526620,20,f,NA,NA,NA,NA,NA,NA,NA,NA,NA,5,5,5,6,6,6,5,6,5,3,3,5,5,2,5,2,5,1,2,1,1,2,4,4,2,NA,NA,NA,NA,NA,NA,NA,NA,NA,NA,include,exclude,include,include,include,exclude,NA,5.444444444444445,3.75,2.125,NA,3,"Black People/Good,White People/Bad",Black People/Good,correct,1532,958.4473684210526,827.4605263157895,346.0777737632625,-0.37848961139834947,114,exclude,0,1,include,include
548565,23,f,2,6,5,5,5,5,6,5,5,NA,NA,NA,NA,NA,NA,NA,NA,NA,NA,NA,NA,NA,NA,NA,NA,NA,NA,NA,NA,NA,NA,NA,NA,NA,4,5,5,4,5,2,5,3,4,5,include,include,exclude,exclude,exclude,include,4.888888888888889,NA,NA,NA,4.2,3,"Black People/Positive,White People/Negative",Black People/Positive,correct,760,674.1315789473684,773.4683544303797,375.4561028214731,0.2645762706652427,117,exclude,0,1,include,include
558041,28,f,NA,NA,NA,NA,NA,NA,NA,NA,NA,5,6,6,2,6,5,5,6,4,6,2,6,5,2,4,2,4,1,3,4,4,2,4,2,2,NA,NA,NA,NA,NA,NA,NA,NA,NA,NA,include,exclude,include,include,include,exclude,NA,5,3.875,2.75,NA,3,"White People/Pleasant,Black People/Unpleasant",White People/Pleasant,correct,1047,1440.2,971.9620253164557,653.592919855581,-0.716406130572845,119,exclude,0,1,include,include
579249,54,f,3,4,3,5,5,3,6,3,5,NA,NA,NA,NA,NA,NA,NA,NA,NA,NA,NA,NA,NA,NA,NA,NA,NA,NA,NA,NA,NA,NA,NA,NA,NA,4,4,5,4,4,4,5,2,4,5,include,include,exclude,exclude,exclude,include,4.111111111111111,NA,NA,NA,4.1,3,"Black People/Pleasant,White People/Unpleasant",Black People/Pleasant,correct,1536,745.0769230769231,722.5584415584416,230.92097387831956,-0.09751596461890592,116,exclude,0,1,include,include
617893,42,m,4,4,5,4,5,3,4,4,4,NA,NA,NA,NA,NA,NA,NA,NA,NA,NA,NA,NA,NA,NA,NA,NA,NA,NA,NA,NA,NA,NA,NA,NA,NA,4,3,5,5,4,5,3,3,4,2,include,include,exclude,exclude,exclude,include,4.111111111111111,NA,NA,NA,3.8,3,"Black People/Good,White People/Bad",White People/Bad,correct,815,776.2820512820513,680.5,199.57801673217128,-0.47992285348034297,117,exclude,0,1,include,include
634062,32,m,3,NA,6,5,4,5,5,5,5,NA,NA,NA,NA,NA,NA,NA,NA,NA,NA,NA,NA,NA,NA,NA,NA,NA,NA,NA,NA,NA,NA,NA,NA,NA,6,3,5,6,5,5,4,2,6,5,include,exclude,exclude,exclude,exclude,include,NA,NA,NA,NA,4.7,3,"White People/Good,Black People/Bad",White People/Good,correct,1579,664.7435897435897,724.6027397260274,373.43159691865935,0.16029481831842993,112,exclude,0,1,include,include
652538,35,m,NA,NA,NA,NA,NA,NA,NA,NA,NA,5,3,7,3,3,6,5,5,2,5,3,5,7,2,5,2,5,4,2,5,5,2,4,2,5,NA,NA,NA,NA,NA,NA,NA,NA,NA,NA,exclude,exclude,include,include,include,exclude,NA,4.333333333333333,4.25,3.625,NA,3,"White People/Pleasant,Black People/Unpleasant",White People/Pleasant,correct,2413,995.1764705882352,886.2307692307693,523.4796511479173,-0.2081183119889443,99,exclude,0,1,include,exclude
668486,22,m,NA,NA,NA,NA,NA,NA,NA,NA,NA,5,2,5,3,3,4,4,4,5,3,2,5,5,3,6,3,4,4,3,5,3,4,3,3,3,NA,NA,NA,NA,NA,NA,NA,NA,NA,NA,include,exclude,include,include,include,exclude,NA,3.888888888888889,3.875,3.5,NA,3,"White People/Positive,Black People/Negative",Black People/Negative,correct,760,681.25,608.2205882352941,149.1183581839431,-0.48974125422318115,100,exclude,0,1,include,include
664326,46,m,NA,NA,NA,NA,NA,NA,NA,NA,NA,6,4,6,2,2,6,5,6,5,3,3,4,4,3,5,3,3,2,1,3,3,2,6,1,3,NA,NA,NA,NA,NA,NA,NA,NA,NA,NA,include,exclude,include,include,include,exclude,NA,4.666666666666667,3.5,2.625,NA,3,"Black People/Good,White People/Bad",White People/Bad,correct,1026,816.6285714285714,635.3466666666667,214.24959546666912,-0.8461248403622156,110,exclude,0,1,include,include
194648,NA,NA,3,5,6,6,5,5,5,3,6,NA,NA,NA,NA,NA,NA,NA,NA,NA,NA,NA,NA,NA,NA,NA,NA,NA,NA,NA,NA,NA,NA,NA,NA,NA,5,4,6,5,6,4,4,2,5,5,include,include,exclude,exclude,exclude,include,4.888888888888889,NA,NA,NA,4.6,3,"White People/Unpleasant,Black People/Pleasant",White People/Unpleasant,correct,609,510.9736842105263,504.14666666666665,148.63707827006843,-0.04593078405009549,113,exclude,0,1,include,exclude
173703,NA,NA,NA,NA,NA,NA,NA,NA,NA,NA,NA,6,2,5,2,3,5,5,5,4,5,4,6,6,6,6,4,6,2,2,3,2,1,4,2,3,NA,NA,NA,NA,NA,NA,NA,NA,NA,NA,include,exclude,include,include,include,exclude,NA,4.111111111111111,5.375,2.375,NA,3,"Black People/Bad,White People/Good",White People/Good,correct,1499,1305.7,942.1794871794872,724.3229699105007,-0.5018762733224248,118,exclude,0,1,include,exclude
167754,NA,NA,5,4,6,5,6,5,4,3,6,NA,NA,NA,NA,NA,NA,NA,NA,NA,NA,NA,NA,NA,NA,NA,NA,NA,NA,NA,NA,NA,NA,NA,NA,NA,5,4,6,5,5,4,6,6,6,5,include,include,exclude,exclude,exclude,include,4.888888888888889,NA,NA,NA,5.2,3,"White People/Negative,Black People/Positive",Black People/Positive,correct,1047,775.8,701.7931034482758,173.80342017917653,-0.4258080564549842,98,exclude,0,1,include,exclude
501196,16,m,3,4,4,3,5,2,4,5,4,NA,NA,NA,NA,NA,NA,NA,NA,NA,NA,NA,NA,NA,NA,NA,NA,NA,NA,NA,NA,NA,NA,NA,NA,NA,4,5,6,5,5,4,4,4,5,4,include,include,exclude,exclude,exclude,include,3.7777777777777777,NA,NA,NA,4.6,3,"Black People/Pleasant,White People/Unpleasant",Black People/Pleasant,correct,772,647.65,709.1168831168832,203.53544911167893,0.30199595886197006,117,exclude,0,1,include,include
217118,21,m,NA,NA,NA,NA,NA,NA,NA,NA,NA,4,4,5,3,1,5,2,5,1,5,5,5,5,4,5,3,5,2,1,3,1,1,1,1,3,NA,NA,NA,NA,NA,NA,NA,NA,NA,NA,include,exclude,include,include,include,exclude,NA,3.3333333333333335,4.625,1.625,NA,3,"White People/Unpleasant,Black People/Pleasant",Black People/Pleasant,correct,603,842.7,708.1666666666666,290.4607424822959,-0.4631721732293425,118,exclude,0,1,include,include
217597,25,f,3,4,3,4,4,5,4,3,4,NA,NA,NA,NA,NA,NA,NA,NA,NA,NA,NA,NA,NA,NA,NA,NA,NA,NA,NA,NA,NA,NA,NA,NA,NA,4,4,5,4,3,4,4,3,4,4,include,include,exclude,exclude,exclude,include,3.7777777777777777,NA,NA,NA,3.9,3,"White People/Bad,Black People/Good",White People/Bad,correct,423,516.15,476.93150684931504,183.28697973555444,-0.21397315405201825,113,exclude,0,1,include,include
309503,22,f,NA,NA,NA,NA,NA,NA,NA,NA,NA,5,5,5,2,4,5,5,4,5,3,3,3,4,2,3,2,3,4,2,2,4,2,2,2,4,NA,NA,NA,NA,NA,NA,NA,NA,NA,NA,include,exclude,include,include,include,exclude,NA,4.444444444444445,2.875,2.75,NA,3,"Black People/Positive,White People/Negative",White People/Negative,correct,1364,713.0769230769231,631.6455696202531,229.59230095093932,-0.3546780668140554,118,exclude,0,1,include,include
311846,58,f,NA,NA,NA,NA,NA,NA,NA,NA,NA,5,6,5,6,5,6,1,5,2,1,1,3,5,1,5,1,4,5,2,5,4,1,5,2,4,NA,NA,NA,NA,NA,NA,NA,NA,NA,NA,include,exclude,include,include,include,exclude,NA,4.555555555555555,2.625,3.5,NA,3,"White People/Good,Black People/Bad",Black People/Bad,correct,2837,1385.6,1038.9125,514.7752705809406,-0.6734734938000263,120,include,0,1,include,include
340489,17,f,4,4,5,5,4,3,4,4,5,NA,NA,NA,NA,NA,NA,NA,NA,NA,NA,NA,NA,NA,NA,NA,NA,NA,NA,NA,NA,NA,NA,NA,NA,NA,3,3,5,3,4,3,5,5,5,5,include,include,exclude,exclude,exclude,include,4.222222222222222,NA,NA,NA,4.1,3,"White People/Positive,Black People/Negative",White People/Positive,correct,1096,644.5405405405405,539.2631578947369,263.8365300745329,-0.39902504257489724,113,exclude,0,1,include,include
353222,29,f,1,5,3,2,6,5,5,2,5,NA,NA,NA,NA,NA,NA,NA,NA,NA,NA,NA,NA,NA,NA,NA,NA,NA,NA,NA,NA,NA,NA,NA,NA,NA,2,4,5,1,2,3,5,3,3,2,include,include,exclude,exclude,exclude,include,3.7777777777777777,NA,NA,NA,3,3,"White People/Good,Black People/Bad",Black People/Bad,correct,907,934.925,757.0897435897435,336.818721605711,-0.5279850703145745,118,exclude,0,1,include,include
393892,18,f,4,4,5,4,6,3,5,4,4,NA,NA,NA,NA,NA,NA,NA,NA,NA,NA,NA,NA,NA,NA,NA,NA,NA,NA,NA,NA,NA,NA,NA,NA,NA,5,3,5,6,5,5,4,4,5,5,include,include,exclude,exclude,exclude,include,4.333333333333333,NA,NA,NA,4.7,3,"White People/Pleasant,Black People/Unpleasant",White People/Pleasant,correct,859,796.7631578947369,680.9473684210526,179.16231292753642,-0.6464294168859434,114,exclude,0,1,include,include
395088,33,m,NA,NA,NA,NA,NA,NA,NA,NA,NA,6,5,6,5,2,5,6,5,2,5,2,4,4,5,6,5,2,1,2,4,4,5,4,2,1,NA,NA,NA,NA,NA,NA,NA,NA,NA,NA,include,exclude,include,include,include,exclude,NA,4.666666666666667,4.125,2.875,NA,3,"Black People/Pleasant,White People/Unpleasant",White People/Unpleasant,correct,811,1282.025,977.4868421052631,573.035267144444,-0.5314474960892286,116,exclude,0,1,include,include
440645,27,f,NA,NA,NA,NA,NA,NA,NA,NA,NA,5,5,6,6,5,5,5,5,4,5,5,4,5,5,6,5,5,2,3,4,4,1,2,2,4,NA,NA,NA,NA,NA,NA,NA,NA,NA,NA,include,exclude,include,include,include,exclude,NA,5.111111111111111,5,2.75,NA,3,"White People/Positive,Black People/Negative",Black People/Negative,correct,2708,1144.4166666666667,695.36,509.5450912333471,-0.8812893586703604,111,exclude,0,1,include,include
448235,39,f,1,6,6,1,2,1,3,2,6,NA,NA,NA,NA,NA,NA,NA,NA,NA,NA,NA,NA,NA,NA,NA,NA,NA,NA,NA,NA,NA,NA,NA,NA,NA,6,5,6,6,6,6,5,6,6,6,include,include,exclude,exclude,exclude,include,3.111111111111111,NA,NA,NA,5.8,3,"White People/Positive,Black People/Negative",Black People/Negative,correct,2912,1113.611111111111,802.8333333333334,430.393673382776,-0.7220779416554843,108,exclude,0,1,include,include
460603,32,f,NA,NA,NA,NA,NA,NA,NA,NA,NA,6,4,6,5,5,6,6,4,5,2,1,5,5,1,5,1,2,2,2,4,5,2,4,3,3,NA,NA,NA,NA,NA,NA,NA,NA,NA,NA,include,exclude,include,include,include,exclude,NA,5.222222222222222,2.75,3.125,NA,3,"Black People/Good,White People/Bad",White People/Bad,correct,1221,705.125,648.4868421052631,164.70922905208602,-0.34386754294640154,116,exclude,0,1,include,include
497745,18,f,NA,NA,NA,NA,NA,NA,NA,NA,NA,4,2,5,4,2,3,3,3,3,4,3,5,4,3,4,3,5,1,3,3,3,2,5,4,3,NA,NA,NA,NA,NA,NA,NA,NA,NA,NA,include,exclude,include,include,include,exclude,NA,3.2222222222222223,3.875,3,NA,3,"Black People/Pleasant,White People/Unpleasant",Black People/Pleasant,correct,603,754.1333333333333,781.0625,249.76163699530264,0.10781946735548159,94,exclude,0,1,include,include
505557,44,f,1,6,3,1,1,6,4,3,6,NA,NA,NA,NA,NA,NA,NA,NA,NA,NA,NA,NA,NA,NA,NA,NA,NA,NA,NA,NA,NA,NA,NA,NA,NA,4,1,4,6,4,6,6,4,6,1,include,include,exclude,exclude,exclude,include,3.4444444444444446,NA,NA,NA,4.2,3,"Black People/Positive,White People/Negative",Black People/Positive,correct,776,734.6052631578947,682.6056338028169,160.44530868121933,-0.3240956671309924,109,exclude,0,1,include,include
523839,28,f,4,6,6,6,5,6,6,5,6,NA,NA,NA,NA,NA,NA,NA,NA,NA,NA,NA,NA,NA,NA,NA,NA,NA,NA,NA,NA,NA,NA,NA,NA,NA,6,2,6,4,6,4,3,6,4,4,include,include,exclude,exclude,exclude,include,5.555555555555555,NA,NA,NA,4.5,3,"Black People/Pleasant,White People/Unpleasant",White People/Unpleasant,correct,1802,836.6410256410256,861.4444444444445,381.0626754925791,0.06509012925854463,111,exclude,0,1,include,include
549211,48,f,NA,NA,NA,NA,NA,NA,NA,NA,NA,2,5,2,3,5,5,5,2,5,5,5,5,6,5,5,1,5,6,5,5,4,2,2,1,6,NA,NA,NA,NA,NA,NA,NA,NA,NA,NA,include,exclude,include,include,include,exclude,NA,3.7777777777777777,4.625,3.875,NA,3,"White People/Positive,Black People/Negative",White People/Positive,correct,1298,1071,766.1012658227849,360.5532799404642,-0.8456412717353758,114,exclude,0,1,include,include
596741,62,f,NA,NA,NA,NA,NA,NA,NA,NA,NA,6,2,4,3,3,3,3,4,4,6,4,6,5,2,4,2,6,5,3,5,5,2,4,3,3,NA,NA,NA,NA,NA,NA,NA,NA,NA,NA,include,exclude,include,include,include,exclude,NA,3.5555555555555554,4.375,3.75,NA,3,"White People/Good,Black People/Bad",Black People/Bad,correct,1622,1137.5135135135135,796.1794871794872,554.7147362352033,-0.6153325376762627,115,exclude,0,1,include,include
628838,18,f,NA,NA,NA,NA,NA,NA,NA,NA,NA,4,2,5,3,2,4,4,4,2,3,3,3,4,2,3,2,2,4,4,5,5,3,5,4,5,NA,NA,NA,NA,NA,NA,NA,NA,NA,NA,include,exclude,include,include,include,exclude,NA,3.3333333333333335,2.75,4.375,NA,3,"White People/Positive,Black People/Negative",Black People/Negative,correct,943,768.8947368421053,656.4615384615385,151.7698496288766,-0.7408137957275452,116,exclude,0,1,include,include
648950,32,m,3,6,5,5,0,5,6,5,5,NA,NA,NA,NA,NA,NA,NA,NA,NA,NA,NA,NA,NA,NA,NA,NA,NA,NA,NA,NA,NA,NA,NA,NA,NA,5,5,0,5,3,4,5,4,5,0,exclude,include,exclude,exclude,exclude,include,4.444444444444445,NA,NA,NA,3.6,3,"White People/Pleasant,Black People/Unpleasant",Black People/Unpleasant,correct,2399,1133.918918918919,925.4303797468355,444.1272188312113,-0.4694342754329559,116,exclude,0,1,include,exclude
199840,NA,NA,2,5,3,2,2,4,3,2,4,NA,NA,NA,NA,NA,NA,NA,NA,NA,NA,NA,NA,NA,NA,NA,NA,NA,NA,NA,NA,NA,NA,NA,NA,NA,5,5,6,5,5,5,4,4,5,6,include,include,exclude,exclude,exclude,include,3,NA,NA,NA,5,3,"Black People/Unpleasant,White People/Pleasant",Black People/Unpleasant,correct,1047,999.3846153846154,811.4246575342465,360.7414068451425,-0.5210379354401516,112,exclude,0,1,include,exclude
199166,NA,NA,3,4,5,6,4,6,4,2,6,NA,NA,NA,NA,NA,NA,NA,NA,NA,NA,NA,NA,NA,NA,NA,NA,NA,NA,NA,NA,NA,NA,NA,NA,NA,5,5,6,5,6,6,6,5,4,6,include,include,exclude,exclude,exclude,include,4.444444444444445,NA,NA,NA,5.4,3,"White People/Negative,Black People/Positive",Black People/Positive,correct,4669,1069.1891891891892,718.2133333333334,556.7491801645509,-0.6304021062987871,112,exclude,0,1,include,exclude
195431,NA,NA,2,3,5,2,3,3,2,4,2,NA,NA,NA,NA,NA,NA,NA,NA,NA,NA,NA,NA,NA,NA,NA,NA,NA,NA,NA,NA,NA,NA,NA,NA,NA,3,5,5,6,3,3,4,4,6,2,include,include,exclude,exclude,exclude,include,2.888888888888889,NA,NA,NA,4.1,3,"Black People/Unpleasant,White People/Pleasant",White People/Pleasant,correct,1189,713.4571428571429,662.9736842105264,208.8204253050214,-0.2417553674305375,111,exclude,0,1,include,exclude
183947,NA,NA,NA,NA,NA,NA,NA,NA,NA,NA,NA,6,6,6,6,1,6,2,6,NA,6,3,1,3,2,5,4,1,4,1,4,1,6,2,1,4,NA,NA,NA,NA,NA,NA,NA,NA,NA,NA,include,exclude,exclude,include,include,exclude,NA,NA,3.125,2.875,NA,3,"Black People/Bad,White People/Good",Black People/Bad,correct,1173,819.1351351351351,674.5384615384615,308.5621233750075,-0.46861446251113464,115,exclude,0,1,include,exclude
179074,NA,NA,NA,NA,NA,NA,NA,NA,NA,NA,NA,2,1,3,4,3,6,6,5,1,3,6,5,5,4,3,2,1,1,1,5,2,2,2,1,5,NA,NA,NA,NA,NA,NA,NA,NA,NA,NA,include,exclude,include,include,include,exclude,NA,3.4444444444444446,3.625,2.375,NA,3,"White People/Unpleasant,Black People/Pleasant",White People/Unpleasant,correct,628,549.9736842105264,529.4657534246576,173.5697850153369,-0.11815380645920986,111,exclude,0,1,include,exclude
164311,NA,NA,NA,NA,NA,NA,NA,NA,NA,NA,NA,6,5,6,6,6,6,6,6,6,6,5,5,5,5,6,3,6,1,2,5,2,1,2,2,2,NA,NA,NA,NA,NA,NA,NA,NA,NA,NA,include,exclude,include,include,include,exclude,NA,5.888888888888889,5.125,2.125,NA,3,"Black People/Unpleasant,White People/Pleasant",White People/Pleasant,correct,1745,863.6153846153846,749.2692307692307,350.1330251183321,-0.326579173179991,117,exclude,0,1,include,exclude
563894,28,NA,NA,NA,NA,NA,NA,NA,NA,NA,NA,NA,NA,NA,NA,NA,NA,NA,NA,NA,NA,NA,NA,NA,NA,NA,NA,NA,NA,NA,NA,NA,NA,NA,NA,NA,NA,NA,NA,NA,NA,NA,NA,NA,NA,NA,NA,NA,NA,NA,NA,NA,NA,NA,NA,NA,NA,NA,NA,NA,NA,NA,NA,NA,NA,NA,NA,NA,NA,NA,NA,exclude
504354,21,NA,NA,NA,NA,NA,NA,NA,NA,NA,NA,NA,NA,NA,NA,NA,NA,NA,NA,NA,NA,NA,NA,NA,NA,NA,NA,NA,NA,NA,NA,NA,NA,NA,NA,NA,NA,NA,NA,NA,NA,NA,NA,NA,NA,NA,NA,NA,NA,NA,NA,NA,NA,NA,NA,NA,NA,NA,NA,NA,NA,NA,NA,NA,NA,NA,NA,NA,NA,NA,NA,exclude
470307,NA,f,NA,NA,NA,NA,NA,NA,NA,NA,NA,NA,NA,NA,NA,NA,NA,NA,NA,NA,NA,NA,NA,NA,NA,NA,NA,NA,NA,NA,NA,NA,NA,NA,NA,NA,NA,NA,NA,NA,NA,NA,NA,NA,NA,NA,NA,NA,NA,NA,NA,NA,NA,NA,NA,NA,NA,NA,NA,NA,NA,NA,NA,NA,NA,NA,NA,NA,NA,NA,NA,exclude
341410,NA,f,NA,NA,NA,NA,NA,NA,NA,NA,NA,NA,NA,NA,NA,NA,NA,NA,NA,NA,NA,NA,NA,NA,NA,NA,NA,NA,NA,NA,NA,NA,NA,NA,NA,NA,NA,NA,NA,NA,NA,NA,NA,NA,NA,NA,NA,NA,NA,NA,NA,NA,NA,NA,NA,NA,NA,NA,NA,NA,NA,NA,NA,NA,NA,NA,NA,NA,NA,NA,NA,exclude
611186,22,NA,NA,NA,NA,NA,NA,NA,NA,NA,NA,NA,NA,NA,NA,NA,NA,NA,NA,NA,NA,NA,NA,NA,NA,NA,NA,NA,NA,NA,NA,NA,NA,NA,NA,NA,NA,NA,NA,NA,NA,NA,NA,NA,NA,NA,NA,NA,NA,NA,NA,NA,NA,NA,NA,NA,NA,NA,NA,NA,NA,NA,NA,NA,NA,NA,NA,NA,NA,NA,NA,exclude
460641,NA,f,NA,NA,NA,NA,NA,NA,NA,NA,NA,NA,NA,NA,NA,NA,NA,NA,NA,NA,NA,NA,NA,NA,NA,NA,NA,NA,NA,NA,NA,NA,NA,NA,NA,NA,NA,NA,NA,NA,NA,NA,NA,NA,NA,NA,NA,NA,NA,NA,NA,NA,NA,NA,NA,NA,NA,NA,NA,NA,NA,NA,NA,NA,NA,NA,NA,NA,NA,NA,NA,exclude
604610,24,NA,NA,NA,NA,NA,NA,NA,NA,NA,NA,NA,NA,NA,NA,NA,NA,NA,NA,NA,NA,NA,NA,NA,NA,NA,NA,NA,NA,NA,NA,NA,NA,NA,NA,NA,NA,NA,NA,NA,NA,NA,NA,NA,NA,NA,NA,NA,NA,NA,NA,NA,NA,NA,NA,NA,NA,NA,NA,NA,NA,NA,NA,NA,NA,NA,NA,NA,NA,NA,NA,exclude
261108,28,NA,NA,NA,NA,NA,NA,NA,NA,NA,NA,NA,NA,NA,NA,NA,NA,NA,NA,NA,NA,NA,NA,NA,NA,NA,NA,NA,NA,NA,NA,NA,NA,NA,NA,NA,NA,NA,NA,NA,NA,NA,NA,NA,NA,NA,NA,NA,NA,NA,NA,NA,NA,NA,NA,NA,NA,NA,NA,NA,NA,NA,NA,NA,NA,NA,NA,NA,NA,NA,NA,exclude
355441,27,NA,NA,NA,NA,NA,NA,NA,NA,NA,NA,NA,NA,NA,NA,NA,NA,NA,NA,NA,NA,NA,NA,NA,NA,NA,NA,NA,NA,NA,NA,NA,NA,NA,NA,NA,NA,NA,NA,NA,NA,NA,NA,NA,NA,NA,NA,NA,NA,NA,NA,NA,NA,NA,NA,NA,NA,NA,NA,NA,NA,NA,NA,NA,NA,NA,NA,NA,NA,NA,NA,exclude
308712,36,NA,NA,NA,NA,NA,NA,NA,NA,NA,NA,NA,NA,NA,NA,NA,NA,NA,NA,NA,NA,NA,NA,NA,NA,NA,NA,NA,NA,NA,NA,NA,NA,NA,NA,NA,NA,NA,NA,NA,NA,NA,NA,NA,NA,NA,NA,NA,NA,NA,NA,NA,NA,NA,NA,NA,NA,NA,NA,NA,NA,NA,NA,NA,NA,NA,NA,NA,NA,NA,NA,exclude
108132,NA,NA,NA,NA,NA,NA,NA,NA,NA,NA,NA,NA,NA,NA,NA,NA,NA,NA,NA,NA,NA,NA,NA,NA,NA,NA,NA,NA,NA,NA,NA,NA,NA,NA,NA,NA,NA,NA,NA,NA,NA,NA,NA,NA,NA,NA,NA,NA,NA,NA,NA,NA,NA,NA,NA,NA,NA,NA,NA,NA,NA,NA,NA,NA,NA,NA,NA,NA,NA,NA,NA,exclude
498423,39,NA,NA,NA,NA,NA,NA,NA,NA,NA,NA,NA,NA,NA,NA,NA,NA,NA,NA,NA,NA,NA,NA,NA,NA,NA,NA,NA,NA,NA,NA,NA,NA,NA,NA,NA,NA,NA,NA,NA,NA,NA,NA,NA,NA,NA,NA,NA,NA,NA,NA,NA,NA,NA,NA,NA,NA,NA,NA,NA,NA,NA,NA,NA,NA,NA,NA,NA,NA,NA,NA,exclude
567321,16,NA,NA,NA,NA,NA,NA,NA,NA,NA,NA,NA,NA,NA,NA,NA,NA,NA,NA,NA,NA,NA,NA,NA,NA,NA,NA,NA,NA,NA,NA,NA,NA,NA,NA,NA,NA,NA,NA,NA,NA,NA,NA,NA,NA,NA,NA,NA,NA,NA,NA,NA,NA,NA,NA,NA,NA,NA,NA,NA,NA,NA,NA,NA,NA,NA,NA,NA,NA,NA,NA,exclude
175356,NA,NA,NA,NA,NA,NA,NA,NA,NA,NA,NA,NA,NA,NA,NA,NA,NA,NA,NA,NA,NA,NA,NA,NA,NA,NA,NA,NA,NA,NA,NA,NA,NA,NA,NA,NA,NA,NA,NA,NA,NA,NA,NA,NA,NA,NA,NA,NA,NA,NA,NA,NA,NA,NA,NA,NA,NA,NA,NA,NA,NA,NA,NA,NA,NA,NA,NA,NA,NA,NA,NA,exclude
94165,NA,NA,NA,NA,NA,NA,NA,NA,NA,NA,NA,NA,NA,NA,NA,NA,NA,NA,NA,NA,NA,NA,NA,NA,NA,NA,NA,NA,NA,NA,NA,NA,NA,NA,NA,NA,NA,NA,NA,NA,NA,NA,NA,NA,NA,NA,NA,NA,NA,NA,NA,NA,NA,NA,NA,NA,NA,NA,NA,NA,NA,NA,NA,NA,NA,NA,NA,NA,NA,NA,NA,exclude
674100,NA,f,NA,NA,NA,NA,NA,NA,NA,NA,NA,NA,NA,NA,NA,NA,NA,NA,NA,NA,NA,NA,NA,NA,NA,NA,NA,NA,NA,NA,NA,NA,NA,NA,NA,NA,NA,NA,NA,NA,NA,NA,NA,NA,NA,NA,NA,NA,NA,NA,NA,NA,NA,NA,NA,NA,NA,NA,NA,NA,NA,NA,NA,NA,NA,NA,NA,NA,NA,NA,NA,exclude
337704,26,NA,NA,NA,NA,NA,NA,NA,NA,NA,NA,NA,NA,NA,NA,NA,NA,NA,NA,NA,NA,NA,NA,NA,NA,NA,NA,NA,NA,NA,NA,NA,NA,NA,NA,NA,NA,NA,NA,NA,NA,NA,NA,NA,NA,NA,NA,NA,NA,NA,NA,NA,NA,NA,NA,NA,NA,NA,NA,NA,NA,NA,NA,NA,NA,NA,NA,NA,NA,NA,NA,exclude
569198,52,NA,NA,NA,NA,NA,NA,NA,NA,NA,NA,NA,NA,NA,NA,NA,NA,NA,NA,NA,NA,NA,NA,NA,NA,NA,NA,NA,NA,NA,NA,NA,NA,NA,NA,NA,NA,NA,NA,NA,NA,NA,NA,NA,NA,NA,NA,NA,NA,NA,NA,NA,NA,NA,NA,NA,NA,NA,NA,NA,NA,NA,NA,NA,NA,NA,NA,NA,NA,NA,NA,exclude
382844,NA,f,NA,NA,NA,NA,NA,NA,NA,NA,NA,NA,NA,NA,NA,NA,NA,NA,NA,NA,NA,NA,NA,NA,NA,NA,NA,NA,NA,NA,NA,NA,NA,NA,NA,NA,NA,NA,NA,NA,NA,NA,NA,NA,NA,NA,NA,NA,NA,NA,NA,NA,NA,NA,NA,NA,NA,NA,NA,NA,NA,NA,NA,NA,NA,NA,NA,NA,NA,NA,NA,exclude
342806,29,NA,NA,NA,NA,NA,NA,NA,NA,NA,NA,NA,NA,NA,NA,NA,NA,NA,NA,NA,NA,NA,NA,NA,NA,NA,NA,NA,NA,NA,NA,NA,NA,NA,NA,NA,NA,NA,NA,NA,NA,NA,NA,NA,NA,NA,NA,NA,NA,NA,NA,NA,NA,NA,NA,NA,NA,NA,NA,NA,NA,NA,NA,NA,NA,NA,NA,NA,NA,NA,NA,exclude
166328,NA,NA,NA,NA,NA,NA,NA,NA,NA,NA,NA,NA,NA,NA,NA,NA,NA,NA,NA,NA,NA,NA,NA,NA,NA,NA,NA,NA,NA,NA,NA,NA,NA,NA,NA,NA,NA,NA,NA,NA,NA,NA,NA,NA,NA,NA,NA,NA,NA,NA,NA,NA,NA,NA,NA,NA,NA,NA,NA,NA,NA,NA,NA,NA,NA,NA,NA,NA,NA,NA,NA,exclude
130056,NA,NA,NA,NA,NA,NA,NA,NA,NA,NA,NA,NA,NA,NA,NA,NA,NA,NA,NA,NA,NA,NA,NA,NA,NA,NA,NA,NA,NA,NA,NA,NA,NA,NA,NA,NA,NA,NA,NA,NA,NA,NA,NA,NA,NA,NA,NA,NA,NA,NA,NA,NA,NA,NA,NA,NA,NA,NA,NA,NA,NA,NA,NA,NA,NA,NA,NA,NA,NA,NA,NA,exclude
511210,24,NA,NA,NA,NA,NA,NA,NA,NA,NA,NA,NA,NA,NA,NA,NA,NA,NA,NA,NA,NA,NA,NA,NA,NA,NA,NA,NA,NA,NA,NA,NA,NA,NA,NA,NA,NA,NA,NA,NA,NA,NA,NA,NA,NA,NA,NA,NA,NA,NA,NA,NA,NA,NA,NA,NA,NA,NA,NA,NA,NA,NA,NA,NA,NA,NA,NA,NA,NA,NA,NA,exclude
164230,NA,NA,NA,NA,NA,NA,NA,NA,NA,NA,NA,NA,NA,NA,NA,NA,NA,NA,NA,NA,NA,NA,NA,NA,NA,NA,NA,NA,NA,NA,NA,NA,NA,NA,NA,NA,NA,NA,NA,NA,NA,NA,NA,NA,NA,NA,NA,NA,NA,NA,NA,NA,NA,NA,NA,NA,NA,NA,NA,NA,NA,NA,NA,NA,NA,NA,NA,NA,NA,NA,NA,exclude
NA,NA,m,NA,NA,NA,NA,NA,NA,NA,NA,NA,NA,NA,NA,NA,NA,NA,NA,NA,NA,NA,NA,NA,NA,NA,NA,NA,NA,NA,NA,NA,NA,NA,NA,NA,NA,NA,NA,NA,NA,NA,NA,NA,NA,NA,NA,NA,NA,NA,NA,NA,NA,NA,NA,NA,NA,NA,NA,NA,NA,NA,NA,NA,NA,NA,NA,NA,NA,NA,NA,NA,exclude
252606,NA,m,NA,NA,NA,NA,NA,NA,NA,NA,NA,NA,NA,NA,NA,NA,NA,NA,NA,NA,NA,NA,NA,NA,NA,NA,NA,NA,NA,NA,NA,NA,NA,NA,NA,NA,NA,NA,NA,NA,NA,NA,NA,NA,NA,NA,NA,NA,NA,NA,NA,NA,NA,NA,NA,NA,NA,NA,NA,NA,NA,NA,NA,NA,NA,NA,NA,NA,NA,NA,NA,exclude
457996,NA,NA,NA,NA,NA,NA,NA,NA,NA,NA,NA,NA,NA,NA,NA,NA,NA,NA,NA,NA,NA,NA,NA,NA,NA,NA,NA,NA,NA,NA,NA,NA,NA,NA,NA,NA,NA,NA,NA,NA,NA,NA,NA,NA,NA,NA,NA,NA,NA,NA,NA,NA,NA,NA,NA,NA,NA,NA,NA,NA,NA,NA,NA,NA,NA,NA,NA,NA,NA,NA,NA,exclude
286261,28,NA,NA,NA,NA,NA,NA,NA,NA,NA,NA,NA,NA,NA,NA,NA,NA,NA,NA,NA,NA,NA,NA,NA,NA,NA,NA,NA,NA,NA,NA,NA,NA,NA,NA,NA,NA,NA,NA,NA,NA,NA,NA,NA,NA,NA,NA,NA,NA,NA,NA,NA,NA,NA,NA,NA,NA,NA,NA,NA,NA,NA,NA,NA,NA,NA,NA,NA,NA,NA,NA,exclude
321335,NA,m,NA,NA,NA,NA,NA,NA,NA,NA,NA,NA,NA,NA,NA,NA,NA,NA,NA,NA,NA,NA,NA,NA,NA,NA,NA,NA,NA,NA,NA,NA,NA,NA,NA,NA,NA,NA,NA,NA,NA,NA,NA,NA,NA,NA,NA,NA,NA,NA,NA,NA,NA,NA,NA,NA,NA,NA,NA,NA,NA,NA,NA,NA,NA,NA,NA,NA,NA,NA,NA,exclude
189542,NA,NA,NA,NA,NA,NA,NA,NA,NA,NA,NA,NA,NA,NA,NA,NA,NA,NA,NA,NA,NA,NA,NA,NA,NA,NA,NA,NA,NA,NA,NA,NA,NA,NA,NA,NA,NA,NA,NA,NA,NA,NA,NA,NA,NA,NA,NA,NA,NA,NA,NA,NA,NA,NA,NA,NA,NA,NA,NA,NA,NA,NA,NA,NA,NA,NA,NA,NA,NA,NA,NA,exclude
322866,NA,m,NA,NA,NA,NA,NA,NA,NA,NA,NA,NA,NA,NA,NA,NA,NA,NA,NA,NA,NA,NA,NA,NA,NA,NA,NA,NA,NA,NA,NA,NA,NA,NA,NA,NA,NA,NA,NA,NA,NA,NA,NA,NA,NA,NA,NA,NA,NA,NA,NA,NA,NA,NA,NA,NA,NA,NA,NA,NA,NA,NA,NA,NA,NA,NA,NA,NA,NA,NA,NA,exclude
170987,NA,NA,NA,NA,NA,NA,NA,NA,NA,NA,NA,NA,NA,NA,NA,NA,NA,NA,NA,NA,NA,NA,NA,NA,NA,NA,NA,NA,NA,NA,NA,NA,NA,NA,NA,NA,NA,NA,NA,NA,NA,NA,NA,NA,NA,NA,NA,NA,NA,NA,NA,NA,NA,NA,NA,NA,NA,NA,NA,NA,NA,NA,NA,NA,NA,NA,NA,NA,NA,NA,NA,exclude
127637,NA,NA,NA,NA,NA,NA,NA,NA,NA,NA,NA,NA,NA,NA,NA,NA,NA,NA,NA,NA,NA,NA,NA,NA,NA,NA,NA,NA,NA,NA,NA,NA,NA,NA,NA,NA,NA,NA,NA,NA,NA,NA,NA,NA,NA,NA,NA,NA,NA,NA,NA,NA,NA,NA,NA,NA,NA,NA,NA,NA,NA,NA,NA,NA,NA,NA,NA,NA,NA,NA,NA,exclude
93399,NA,NA,NA,NA,NA,NA,NA,NA,NA,NA,NA,NA,NA,NA,NA,NA,NA,NA,NA,NA,NA,NA,NA,NA,NA,NA,NA,NA,NA,NA,NA,NA,NA,NA,NA,NA,NA,NA,NA,NA,NA,NA,NA,NA,NA,NA,NA,NA,NA,NA,NA,NA,NA,NA,NA,NA,NA,NA,NA,NA,NA,NA,NA,NA,NA,NA,NA,NA,NA,NA,NA,exclude
584902,NA,f,NA,NA,NA,NA,NA,NA,NA,NA,NA,NA,NA,NA,NA,NA,NA,NA,NA,NA,NA,NA,NA,NA,NA,NA,NA,NA,NA,NA,NA,NA,NA,NA,NA,NA,NA,NA,NA,NA,NA,NA,NA,NA,NA,NA,NA,NA,NA,NA,NA,NA,NA,NA,NA,NA,NA,NA,NA,NA,NA,NA,NA,NA,NA,NA,NA,NA,NA,NA,NA,exclude
251550,57,NA,NA,NA,NA,NA,NA,NA,NA,NA,NA,NA,NA,NA,NA,NA,NA,NA,NA,NA,NA,NA,NA,NA,NA,NA,NA,NA,NA,NA,NA,NA,NA,NA,NA,NA,NA,NA,NA,NA,NA,NA,NA,NA,NA,NA,NA,NA,NA,NA,NA,NA,NA,NA,NA,NA,NA,NA,NA,NA,NA,NA,NA,NA,NA,NA,NA,NA,NA,NA,NA,exclude
645696,NA,f,NA,NA,NA,NA,NA,NA,NA,NA,NA,NA,NA,NA,NA,NA,NA,NA,NA,NA,NA,NA,NA,NA,NA,NA,NA,NA,NA,NA,NA,NA,NA,NA,NA,NA,NA,NA,NA,NA,NA,NA,NA,NA,NA,NA,NA,NA,NA,NA,NA,NA,NA,NA,NA,NA,NA,NA,NA,NA,NA,NA,NA,NA,NA,NA,NA,NA,NA,NA,NA,exclude
418261,NA,m,NA,NA,NA,NA,NA,NA,NA,NA,NA,NA,NA,NA,NA,NA,NA,NA,NA,NA,NA,NA,NA,NA,NA,NA,NA,NA,NA,NA,NA,NA,NA,NA,NA,NA,NA,NA,NA,NA,NA,NA,NA,NA,NA,NA,NA,NA,NA,NA,NA,NA,NA,NA,NA,NA,NA,NA,NA,NA,NA,NA,NA,NA,NA,NA,NA,NA,NA,NA,NA,exclude
116746,NA,NA,NA,NA,NA,NA,NA,NA,NA,NA,NA,NA,NA,NA,NA,NA,NA,NA,NA,NA,NA,NA,NA,NA,NA,NA,NA,NA,NA,NA,NA,NA,NA,NA,NA,NA,NA,NA,NA,NA,NA,NA,NA,NA,NA,NA,NA,NA,NA,NA,NA,NA,NA,NA,NA,NA,NA,NA,NA,NA,NA,NA,NA,NA,NA,NA,NA,NA,NA,NA,NA,exclude
375509,29,NA,NA,NA,NA,NA,NA,NA,NA,NA,NA,NA,NA,NA,NA,NA,NA,NA,NA,NA,NA,NA,NA,NA,NA,NA,NA,NA,NA,NA,NA,NA,NA,NA,NA,NA,NA,NA,NA,NA,NA,NA,NA,NA,NA,NA,NA,NA,NA,NA,NA,NA,NA,NA,NA,NA,NA,NA,NA,NA,NA,NA,NA,NA,NA,NA,NA,NA,NA,NA,NA,exclude
341967,30,NA,NA,NA,NA,NA,NA,NA,NA,NA,NA,NA,NA,NA,NA,NA,NA,NA,NA,NA,NA,NA,NA,NA,NA,NA,NA,NA,NA,NA,NA,NA,NA,NA,NA,NA,NA,NA,NA,NA,NA,NA,NA,NA,NA,NA,NA,NA,NA,NA,NA,NA,NA,NA,NA,NA,NA,NA,NA,NA,NA,NA,NA,NA,NA,NA,NA,NA,NA,NA,NA,exclude
379632,29,NA,NA,NA,NA,NA,NA,NA,NA,NA,NA,NA,NA,NA,NA,NA,NA,NA,NA,NA,NA,NA,NA,NA,NA,NA,NA,NA,NA,NA,NA,NA,NA,NA,NA,NA,NA,NA,NA,NA,NA,NA,NA,NA,NA,NA,NA,NA,NA,NA,NA,NA,NA,NA,NA,NA,NA,NA,NA,NA,NA,NA,NA,NA,NA,NA,NA,NA,NA,NA,NA,exclude
206903,NA,NA,NA,NA,NA,NA,NA,NA,NA,NA,NA,NA,NA,NA,NA,NA,NA,NA,NA,NA,NA,NA,NA,NA,NA,NA,NA,NA,NA,NA,NA,NA,NA,NA,NA,NA,NA,NA,NA,NA,NA,NA,NA,NA,NA,NA,NA,NA,NA,NA,NA,NA,NA,NA,NA,NA,NA,NA,NA,NA,NA,NA,NA,NA,NA,NA,NA,NA,NA,NA,NA,exclude
669059,22,NA,NA,NA,NA,NA,NA,NA,NA,NA,NA,NA,NA,NA,NA,NA,NA,NA,NA,NA,NA,NA,NA,NA,NA,NA,NA,NA,NA,NA,NA,NA,NA,NA,NA,NA,NA,NA,NA,NA,NA,NA,NA,NA,NA,NA,NA,NA,NA,NA,NA,NA,NA,NA,NA,NA,NA,NA,NA,NA,NA,NA,NA,NA,NA,NA,NA,NA,NA,NA,NA,exclude
136149,NA,NA,NA,NA,NA,NA,NA,NA,NA,NA,NA,NA,NA,NA,NA,NA,NA,NA,NA,NA,NA,NA,NA,NA,NA,NA,NA,NA,NA,NA,NA,NA,NA,NA,NA,NA,NA,NA,NA,NA,NA,NA,NA,NA,NA,NA,NA,NA,NA,NA,NA,NA,NA,NA,NA,NA,NA,NA,NA,NA,NA,NA,NA,NA,NA,NA,NA,NA,NA,NA,NA,exclude
122992,NA,NA,NA,NA,NA,NA,NA,NA,NA,NA,NA,NA,NA,NA,NA,NA,NA,NA,NA,NA,NA,NA,NA,NA,NA,NA,NA,NA,NA,NA,NA,NA,NA,NA,NA,NA,NA,NA,NA,NA,NA,NA,NA,NA,NA,NA,NA,NA,NA,NA,NA,NA,NA,NA,NA,NA,NA,NA,NA,NA,NA,NA,NA,NA,NA,NA,NA,NA,NA,NA,NA,exclude
298477,NA,NA,NA,NA,NA,NA,NA,NA,NA,NA,NA,NA,NA,NA,NA,NA,NA,NA,NA,NA,NA,NA,NA,NA,NA,NA,NA,NA,NA,NA,NA,NA,NA,NA,NA,NA,NA,NA,NA,NA,NA,NA,NA,NA,NA,NA,NA,NA,NA,NA,NA,NA,NA,NA,NA,NA,NA,NA,NA,NA,NA,NA,NA,NA,NA,NA,NA,NA,NA,NA,NA,exclude
350108,19,NA,NA,NA,NA,NA,NA,NA,NA,NA,NA,NA,NA,NA,NA,NA,NA,NA,NA,NA,NA,NA,NA,NA,NA,NA,NA,NA,NA,NA,NA,NA,NA,NA,NA,NA,NA,NA,NA,NA,NA,NA,NA,NA,NA,NA,NA,NA,NA,NA,NA,NA,NA,NA,NA,NA,NA,NA,NA,NA,NA,NA,NA,NA,NA,NA,NA,NA,NA,NA,NA,exclude
607524,40,NA,NA,NA,NA,NA,NA,NA,NA,NA,NA,NA,NA,NA,NA,NA,NA,NA,NA,NA,NA,NA,NA,NA,NA,NA,NA,NA,NA,NA,NA,NA,NA,NA,NA,NA,NA,NA,NA,NA,NA,NA,NA,NA,NA,NA,NA,NA,NA,NA,NA,NA,NA,NA,NA,NA,NA,NA,NA,NA,NA,NA,NA,NA,NA,NA,NA,NA,NA,NA,NA,exclude
152751,NA,f,NA,NA,NA,NA,NA,NA,NA,NA,NA,NA,NA,NA,NA,NA,NA,NA,NA,NA,NA,NA,NA,NA,NA,NA,NA,NA,NA,NA,NA,NA,NA,NA,NA,NA,NA,NA,NA,NA,NA,NA,NA,NA,NA,NA,NA,NA,NA,NA,NA,NA,NA,NA,NA,NA,NA,NA,NA,NA,NA,NA,NA,NA,NA,NA,NA,NA,NA,NA,NA,exclude
170015,36,NA,NA,NA,NA,NA,NA,NA,NA,NA,NA,NA,NA,NA,NA,NA,NA,NA,NA,NA,NA,NA,NA,NA,NA,NA,NA,NA,NA,NA,NA,NA,NA,NA,NA,NA,NA,NA,NA,NA,NA,NA,NA,NA,NA,NA,NA,NA,NA,NA,NA,NA,NA,NA,NA,NA,NA,NA,NA,NA,NA,NA,NA,NA,NA,NA,NA,NA,NA,NA,NA,exclude
336131,NA,NA,NA,NA,NA,NA,NA,NA,NA,NA,NA,NA,NA,NA,NA,NA,NA,NA,NA,NA,NA,NA,NA,NA,NA,NA,NA,NA,NA,NA,NA,NA,NA,NA,NA,NA,NA,NA,NA,NA,NA,NA,NA,NA,NA,NA,NA,NA,NA,NA,NA,NA,NA,NA,NA,NA,NA,NA,NA,NA,NA,NA,NA,NA,NA,NA,NA,NA,NA,NA,NA,exclude
399209,19,NA,NA,NA,NA,NA,NA,NA,NA,NA,NA,NA,NA,NA,NA,NA,NA,NA,NA,NA,NA,NA,NA,NA,NA,NA,NA,NA,NA,NA,NA,NA,NA,NA,NA,NA,NA,NA,NA,NA,NA,NA,NA,NA,NA,NA,NA,NA,NA,NA,NA,NA,NA,NA,NA,NA,NA,NA,NA,NA,NA,NA,NA,NA,NA,NA,NA,NA,NA,NA,NA,exclude
307337,52,NA,NA,NA,NA,NA,NA,NA,NA,NA,NA,NA,NA,NA,NA,NA,NA,NA,NA,NA,NA,NA,NA,NA,NA,NA,NA,NA,NA,NA,NA,NA,NA,NA,NA,NA,NA,NA,NA,NA,NA,NA,NA,NA,NA,NA,NA,NA,NA,NA,NA,NA,NA,NA,NA,NA,NA,NA,NA,NA,NA,NA,NA,NA,NA,NA,NA,NA,NA,NA,NA,exclude
267116,35,NA,NA,NA,NA,NA,NA,NA,NA,NA,NA,NA,NA,NA,NA,NA,NA,NA,NA,NA,NA,NA,NA,NA,NA,NA,NA,NA,NA,NA,NA,NA,NA,NA,NA,NA,NA,NA,NA,NA,NA,NA,NA,NA,NA,NA,NA,NA,NA,NA,NA,NA,NA,NA,NA,NA,NA,NA,NA,NA,NA,NA,NA,NA,NA,NA,NA,NA,NA,NA,NA,exclude
455238,31,NA,NA,NA,NA,NA,NA,NA,NA,NA,NA,NA,NA,NA,NA,NA,NA,NA,NA,NA,NA,NA,NA,NA,NA,NA,NA,NA,NA,NA,NA,NA,NA,NA,NA,NA,NA,NA,NA,NA,NA,NA,NA,NA,NA,NA,NA,NA,NA,NA,NA,NA,NA,NA,NA,NA,NA,NA,NA,NA,NA,NA,NA,NA,NA,NA,NA,NA,NA,NA,NA,exclude
379129,20,NA,NA,NA,NA,NA,NA,NA,NA,NA,NA,NA,NA,NA,NA,NA,NA,NA,NA,NA,NA,NA,NA,NA,NA,NA,NA,NA,NA,NA,NA,NA,NA,NA,NA,NA,NA,NA,NA,NA,NA,NA,NA,NA,NA,NA,NA,NA,NA,NA,NA,NA,NA,NA,NA,NA,NA,NA,NA,NA,NA,NA,NA,NA,NA,NA,NA,NA,NA,NA,NA,exclude
190769,NA,NA,NA,NA,NA,NA,NA,NA,NA,NA,NA,NA,NA,NA,NA,NA,NA,NA,NA,NA,NA,NA,NA,NA,NA,NA,NA,NA,NA,NA,NA,NA,NA,NA,NA,NA,NA,NA,NA,NA,NA,NA,NA,NA,NA,NA,NA,NA,NA,NA,NA,NA,NA,NA,NA,NA,NA,NA,NA,NA,NA,NA,NA,NA,NA,NA,NA,NA,NA,NA,NA,exclude
664516,NA,m,NA,NA,NA,NA,NA,NA,NA,NA,NA,NA,NA,NA,NA,NA,NA,NA,NA,NA,NA,NA,NA,NA,NA,NA,NA,NA,NA,NA,NA,NA,NA,NA,NA,NA,NA,NA,NA,NA,NA,NA,NA,NA,NA,NA,NA,NA,NA,NA,NA,NA,NA,NA,NA,NA,NA,NA,NA,NA,NA,NA,NA,NA,NA,NA,NA,NA,NA,NA,NA,exclude
120660,NA,NA,NA,NA,NA,NA,NA,NA,NA,NA,NA,NA,NA,NA,NA,NA,NA,NA,NA,NA,NA,NA,NA,NA,NA,NA,NA,NA,NA,NA,NA,NA,NA,NA,NA,NA,NA,NA,NA,NA,NA,NA,NA,NA,NA,NA,NA,NA,NA,NA,NA,NA,NA,NA,NA,NA,NA,NA,NA,NA,NA,NA,NA,NA,NA,NA,NA,NA,NA,NA,NA,exclude
586252,NA,m,NA,NA,NA,NA,NA,NA,NA,NA,NA,NA,NA,NA,NA,NA,NA,NA,NA,NA,NA,NA,NA,NA,NA,NA,NA,NA,NA,NA,NA,NA,NA,NA,NA,NA,NA,NA,NA,NA,NA,NA,NA,NA,NA,NA,NA,NA,NA,NA,NA,NA,NA,NA,NA,NA,NA,NA,NA,NA,NA,NA,NA,NA,NA,NA,NA,NA,NA,NA,NA,exclude
255824,NA,m,NA,NA,NA,NA,NA,NA,NA,NA,NA,NA,NA,NA,NA,NA,NA,NA,NA,NA,NA,NA,NA,NA,NA,NA,NA,NA,NA,NA,NA,NA,NA,NA,NA,NA,NA,NA,NA,NA,NA,NA,NA,NA,NA,NA,NA,NA,NA,NA,NA,NA,NA,NA,NA,NA,NA,NA,NA,NA,NA,NA,NA,NA,NA,NA,NA,NA,NA,NA,NA,exclude
619478,21,NA,NA,NA,NA,NA,NA,NA,NA,NA,NA,NA,NA,NA,NA,NA,NA,NA,NA,NA,NA,NA,NA,NA,NA,NA,NA,NA,NA,NA,NA,NA,NA,NA,NA,NA,NA,NA,NA,NA,NA,NA,NA,NA,NA,NA,NA,NA,NA,NA,NA,NA,NA,NA,NA,NA,NA,NA,NA,NA,NA,NA,NA,NA,NA,NA,NA,NA,NA,NA,NA,exclude
625214,20,NA,NA,NA,NA,NA,NA,NA,NA,NA,NA,NA,NA,NA,NA,NA,NA,NA,NA,NA,NA,NA,NA,NA,NA,NA,NA,NA,NA,NA,NA,NA,NA,NA,NA,NA,NA,NA,NA,NA,NA,NA,NA,NA,NA,NA,NA,NA,NA,NA,NA,NA,NA,NA,NA,NA,NA,NA,NA,NA,NA,NA,NA,NA,NA,NA,NA,NA,NA,NA,NA,exclude
361719,36,NA,NA,NA,NA,NA,NA,NA,NA,NA,NA,NA,NA,NA,NA,NA,NA,NA,NA,NA,NA,NA,NA,NA,NA,NA,NA,NA,NA,NA,NA,NA,NA,NA,NA,NA,NA,NA,NA,NA,NA,NA,NA,NA,NA,NA,NA,NA,NA,NA,NA,NA,NA,NA,NA,NA,NA,NA,NA,NA,NA,NA,NA,NA,NA,NA,NA,NA,NA,NA,NA,exclude
344511,31,NA,NA,NA,NA,NA,NA,NA,NA,NA,NA,NA,NA,NA,NA,NA,NA,NA,NA,NA,NA,NA,NA,NA,NA,NA,NA,NA,NA,NA,NA,NA,NA,NA,NA,NA,NA,NA,NA,NA,NA,NA,NA,NA,NA,NA,NA,NA,NA,NA,NA,NA,NA,NA,NA,NA,NA,NA,NA,NA,NA,NA,NA,NA,NA,NA,NA,NA,NA,NA,NA,exclude
228323,NA,f,NA,NA,NA,NA,NA,NA,NA,NA,NA,NA,NA,NA,NA,NA,NA,NA,NA,NA,NA,NA,NA,NA,NA,NA,NA,NA,NA,NA,NA,NA,NA,NA,NA,NA,NA,NA,NA,NA,NA,NA,NA,NA,NA,NA,NA,NA,NA,NA,NA,NA,NA,NA,NA,NA,NA,NA,NA,NA,NA,NA,NA,NA,NA,NA,NA,NA,NA,NA,NA,exclude
433464,NA,m,NA,NA,NA,NA,NA,NA,NA,NA,NA,NA,NA,NA,NA,NA,NA,NA,NA,NA,NA,NA,NA,NA,NA,NA,NA,NA,NA,NA,NA,NA,NA,NA,NA,NA,NA,NA,NA,NA,NA,NA,NA,NA,NA,NA,NA,NA,NA,NA,NA,NA,NA,NA,NA,NA,NA,NA,NA,NA,NA,NA,NA,NA,NA,NA,NA,NA,NA,NA,NA,exclude
235002,27,NA,NA,NA,NA,NA,NA,NA,NA,NA,NA,NA,NA,NA,NA,NA,NA,NA,NA,NA,NA,NA,NA,NA,NA,NA,NA,NA,NA,NA,NA,NA,NA,NA,NA,NA,NA,NA,NA,NA,NA,NA,NA,NA,NA,NA,NA,NA,NA,NA,NA,NA,NA,NA,NA,NA,NA,NA,NA,NA,NA,NA,NA,NA,NA,NA,NA,NA,NA,NA,NA,exclude
329897,35,NA,NA,NA,NA,NA,NA,NA,NA,NA,NA,NA,NA,NA,NA,NA,NA,NA,NA,NA,NA,NA,NA,NA,NA,NA,NA,NA,NA,NA,NA,NA,NA,NA,NA,NA,NA,NA,NA,NA,NA,NA,NA,NA,NA,NA,NA,NA,NA,NA,NA,NA,NA,NA,NA,NA,NA,NA,NA,NA,NA,NA,NA,NA,NA,NA,NA,NA,NA,NA,NA,exclude
310964,35,NA,NA,NA,NA,NA,NA,NA,NA,NA,NA,NA,NA,NA,NA,NA,NA,NA,NA,NA,NA,NA,NA,NA,NA,NA,NA,NA,NA,NA,NA,NA,NA,NA,NA,NA,NA,NA,NA,NA,NA,NA,NA,NA,NA,NA,NA,NA,NA,NA,NA,NA,NA,NA,NA,NA,NA,NA,NA,NA,NA,NA,NA,NA,NA,NA,NA,NA,NA,NA,NA,exclude
517953,NA,f,NA,NA,NA,NA,NA,NA,NA,NA,NA,NA,NA,NA,NA,NA,NA,NA,NA,NA,NA,NA,NA,NA,NA,NA,NA,NA,NA,NA,NA,NA,NA,NA,NA,NA,NA,NA,NA,NA,NA,NA,NA,NA,NA,NA,NA,NA,NA,NA,NA,NA,NA,NA,NA,NA,NA,NA,NA,NA,NA,NA,NA,NA,NA,NA,NA,NA,NA,NA,NA,exclude
546970,19,NA,NA,NA,NA,NA,NA,NA,NA,NA,NA,NA,NA,NA,NA,NA,NA,NA,NA,NA,NA,NA,NA,NA,NA,NA,NA,NA,NA,NA,NA,NA,NA,NA,NA,NA,NA,NA,NA,NA,NA,NA,NA,NA,NA,NA,NA,NA,NA,NA,NA,NA,NA,NA,NA,NA,NA,NA,NA,NA,NA,NA,NA,NA,NA,NA,NA,NA,NA,NA,NA,exclude
453724,43,NA,NA,NA,NA,NA,NA,NA,NA,NA,NA,NA,NA,NA,NA,NA,NA,NA,NA,NA,NA,NA,NA,NA,NA,NA,NA,NA,NA,NA,NA,NA,NA,NA,NA,NA,NA,NA,NA,NA,NA,NA,NA,NA,NA,NA,NA,NA,NA,NA,NA,NA,NA,NA,NA,NA,NA,NA,NA,NA,NA,NA,NA,NA,NA,NA,NA,NA,NA,NA,NA,exclude
301974,NA,m,NA,NA,NA,NA,NA,NA,NA,NA,NA,NA,NA,NA,NA,NA,NA,NA,NA,NA,NA,NA,NA,NA,NA,NA,NA,NA,NA,NA,NA,NA,NA,NA,NA,NA,NA,NA,NA,NA,NA,NA,NA,NA,NA,NA,NA,NA,NA,NA,NA,NA,NA,NA,NA,NA,NA,NA,NA,NA,NA,NA,NA,NA,NA,NA,NA,NA,NA,NA,NA,exclude
223697,NA,f,NA,NA,NA,NA,NA,NA,NA,NA,NA,NA,NA,NA,NA,NA,NA,NA,NA,NA,NA,NA,NA,NA,NA,NA,NA,NA,NA,NA,NA,NA,NA,NA,NA,NA,NA,NA,NA,NA,NA,NA,NA,NA,NA,NA,NA,NA,NA,NA,NA,NA,NA,NA,NA,NA,NA,NA,NA,NA,NA,NA,NA,NA,NA,NA,NA,NA,NA,NA,NA,exclude
558988,NA,f,NA,NA,NA,NA,NA,NA,NA,NA,NA,NA,NA,NA,NA,NA,NA,NA,NA,NA,NA,NA,NA,NA,NA,NA,NA,NA,NA,NA,NA,NA,NA,NA,NA,NA,NA,NA,NA,NA,NA,NA,NA,NA,NA,NA,NA,NA,NA,NA,NA,NA,NA,NA,NA,NA,NA,NA,NA,NA,NA,NA,NA,NA,NA,NA,NA,NA,NA,NA,NA,exclude
355523,23,NA,NA,NA,NA,NA,NA,NA,NA,NA,NA,NA,NA,NA,NA,NA,NA,NA,NA,NA,NA,NA,NA,NA,NA,NA,NA,NA,NA,NA,NA,NA,NA,NA,NA,NA,NA,NA,NA,NA,NA,NA,NA,NA,NA,NA,NA,NA,NA,NA,NA,NA,NA,NA,NA,NA,NA,NA,NA,NA,NA,NA,NA,NA,NA,NA,NA,NA,NA,NA,NA,exclude
401460,35,NA,NA,NA,NA,NA,NA,NA,NA,NA,NA,NA,NA,NA,NA,NA,NA,NA,NA,NA,NA,NA,NA,NA,NA,NA,NA,NA,NA,NA,NA,NA,NA,NA,NA,NA,NA,NA,NA,NA,NA,NA,NA,NA,NA,NA,NA,NA,NA,NA,NA,NA,NA,NA,NA,NA,NA,NA,NA,NA,NA,NA,NA,NA,NA,NA,NA,NA,NA,NA,NA,exclude
499819,19,NA,NA,NA,NA,NA,NA,NA,NA,NA,NA,NA,NA,NA,NA,NA,NA,NA,NA,NA,NA,NA,NA,NA,NA,NA,NA,NA,NA,NA,NA,NA,NA,NA,NA,NA,NA,NA,NA,NA,NA,NA,NA,NA,NA,NA,NA,NA,NA,NA,NA,NA,NA,NA,NA,NA,NA,NA,NA,NA,NA,NA,NA,NA,NA,NA,NA,NA,NA,NA,NA,exclude
469130,44,NA,NA,NA,NA,NA,NA,NA,NA,NA,NA,NA,NA,NA,NA,NA,NA,NA,NA,NA,NA,NA,NA,NA,NA,NA,NA,NA,NA,NA,NA,NA,NA,NA,NA,NA,NA,NA,NA,NA,NA,NA,NA,NA,NA,NA,NA,NA,NA,NA,NA,NA,NA,NA,NA,NA,NA,NA,NA,NA,NA,NA,NA,NA,NA,NA,NA,NA,NA,NA,NA,exclude
170379,NA,NA,NA,NA,NA,NA,NA,NA,NA,NA,NA,NA,NA,NA,NA,NA,NA,NA,NA,NA,NA,NA,NA,NA,NA,NA,NA,NA,NA,NA,NA,NA,NA,NA,NA,NA,NA,NA,NA,NA,NA,NA,NA,NA,NA,NA,NA,NA,NA,NA,NA,NA,NA,NA,NA,NA,NA,NA,NA,NA,NA,NA,NA,NA,NA,NA,NA,NA,NA,NA,NA,exclude
645210,NA,f,NA,NA,NA,NA,NA,NA,NA,NA,NA,NA,NA,NA,NA,NA,NA,NA,NA,NA,NA,NA,NA,NA,NA,NA,NA,NA,NA,NA,NA,NA,NA,NA,NA,NA,NA,NA,NA,NA,NA,NA,NA,NA,NA,NA,NA,NA,NA,NA,NA,NA,NA,NA,NA,NA,NA,NA,NA,NA,NA,NA,NA,NA,NA,NA,NA,NA,NA,NA,NA,exclude
550345,23,NA,NA,NA,NA,NA,NA,NA,NA,NA,NA,NA,NA,NA,NA,NA,NA,NA,NA,NA,NA,NA,NA,NA,NA,NA,NA,NA,NA,NA,NA,NA,NA,NA,NA,NA,NA,NA,NA,NA,NA,NA,NA,NA,NA,NA,NA,NA,NA,NA,NA,NA,NA,NA,NA,NA,NA,NA,NA,NA,NA,NA,NA,NA,NA,NA,NA,NA,NA,NA,NA,exclude
509118,NA,m,NA,NA,NA,NA,NA,NA,NA,NA,NA,NA,NA,NA,NA,NA,NA,NA,NA,NA,NA,NA,NA,NA,NA,NA,NA,NA,NA,NA,NA,NA,NA,NA,NA,NA,NA,NA,NA,NA,NA,NA,NA,NA,NA,NA,NA,NA,NA,NA,NA,NA,NA,NA,NA,NA,NA,NA,NA,NA,NA,NA,NA,NA,NA,NA,NA,NA,NA,NA,NA,exclude
493088,29,NA,NA,NA,NA,NA,NA,NA,NA,NA,NA,NA,NA,NA,NA,NA,NA,NA,NA,NA,NA,NA,NA,NA,NA,NA,NA,NA,NA,NA,NA,NA,NA,NA,NA,NA,NA,NA,NA,NA,NA,NA,NA,NA,NA,NA,NA,NA,NA,NA,NA,NA,NA,NA,NA,NA,NA,NA,NA,NA,NA,NA,NA,NA,NA,NA,NA,NA,NA,NA,NA,exclude
196453,NA,NA,NA,NA,NA,NA,NA,NA,NA,NA,NA,NA,NA,NA,NA,NA,NA,NA,NA,NA,NA,NA,NA,NA,NA,NA,NA,NA,NA,NA,NA,NA,NA,NA,NA,NA,NA,NA,NA,NA,NA,NA,NA,NA,NA,NA,NA,NA,NA,NA,NA,NA,NA,NA,NA,NA,NA,NA,NA,NA,NA,NA,NA,NA,NA,NA,NA,NA,NA,NA,NA,exclude
326757,NA,NA,NA,NA,NA,NA,NA,NA,NA,NA,NA,NA,NA,NA,NA,NA,NA,NA,NA,NA,NA,NA,NA,NA,NA,NA,NA,NA,NA,NA,NA,NA,NA,NA,NA,NA,NA,NA,NA,NA,NA,NA,NA,NA,NA,NA,NA,NA,NA,NA,NA,NA,NA,NA,NA,NA,NA,NA,NA,NA,NA,NA,NA,NA,NA,NA,NA,NA,NA,NA,NA,exclude
566807,17,NA,NA,NA,NA,NA,NA,NA,NA,NA,NA,NA,NA,NA,NA,NA,NA,NA,NA,NA,NA,NA,NA,NA,NA,NA,NA,NA,NA,NA,NA,NA,NA,NA,NA,NA,NA,NA,NA,NA,NA,NA,NA,NA,NA,NA,NA,NA,NA,NA,NA,NA,NA,NA,NA,NA,NA,NA,NA,NA,NA,NA,NA,NA,NA,NA,NA,NA,NA,NA,NA,exclude
344736,30,NA,NA,NA,NA,NA,NA,NA,NA,NA,NA,NA,NA,NA,NA,NA,NA,NA,NA,NA,NA,NA,NA,NA,NA,NA,NA,NA,NA,NA,NA,NA,NA,NA,NA,NA,NA,NA,NA,NA,NA,NA,NA,NA,NA,NA,NA,NA,NA,NA,NA,NA,NA,NA,NA,NA,NA,NA,NA,NA,NA,NA,NA,NA,NA,NA,NA,NA,NA,NA,NA,exclude
477257,NA,NA,NA,NA,NA,NA,NA,NA,NA,NA,NA,NA,NA,NA,NA,NA,NA,NA,NA,NA,NA,NA,NA,NA,NA,NA,NA,NA,NA,NA,NA,NA,NA,NA,NA,NA,NA,NA,NA,NA,NA,NA,NA,NA,NA,NA,NA,NA,NA,NA,NA,NA,NA,NA,NA,NA,NA,NA,NA,NA,NA,NA,NA,NA,NA,NA,NA,NA,NA,NA,NA,exclude
454771,NA,f,NA,NA,NA,NA,NA,NA,NA,NA,NA,NA,NA,NA,NA,NA,NA,NA,NA,NA,NA,NA,NA,NA,NA,NA,NA,NA,NA,NA,NA,NA,NA,NA,NA,NA,NA,NA,NA,NA,NA,NA,NA,NA,NA,NA,NA,NA,NA,NA,NA,NA,NA,NA,NA,NA,NA,NA,NA,NA,NA,NA,NA,NA,NA,NA,NA,NA,NA,NA,NA,exclude
551773,65,NA,NA,NA,NA,NA,NA,NA,NA,NA,NA,NA,NA,NA,NA,NA,NA,NA,NA,NA,NA,NA,NA,NA,NA,NA,NA,NA,NA,NA,NA,NA,NA,NA,NA,NA,NA,NA,NA,NA,NA,NA,NA,NA,NA,NA,NA,NA,NA,NA,NA,NA,NA,NA,NA,NA,NA,NA,NA,NA,NA,NA,NA,NA,NA,NA,NA,NA,NA,NA,NA,exclude
612687,21,NA,NA,NA,NA,NA,NA,NA,NA,NA,NA,NA,NA,NA,NA,NA,NA,NA,NA,NA,NA,NA,NA,NA,NA,NA,NA,NA,NA,NA,NA,NA,NA,NA,NA,NA,NA,NA,NA,NA,NA,NA,NA,NA,NA,NA,NA,NA,NA,NA,NA,NA,NA,NA,NA,NA,NA,NA,NA,NA,NA,NA,NA,NA,NA,NA,NA,NA,NA,NA,NA,exclude
659118,NA,f,NA,NA,NA,NA,NA,NA,NA,NA,NA,NA,NA,NA,NA,NA,NA,NA,NA,NA,NA,NA,NA,NA,NA,NA,NA,NA,NA,NA,NA,NA,NA,NA,NA,NA,NA,NA,NA,NA,NA,NA,NA,NA,NA,NA,NA,NA,NA,NA,NA,NA,NA,NA,NA,NA,NA,NA,NA,NA,NA,NA,NA,NA,NA,NA,NA,NA,NA,NA,NA,exclude
308094,NA,f,NA,NA,NA,NA,NA,NA,NA,NA,NA,NA,NA,NA,NA,NA,NA,NA,NA,NA,NA,NA,NA,NA,NA,NA,NA,NA,NA,NA,NA,NA,NA,NA,NA,NA,NA,NA,NA,NA,NA,NA,NA,NA,NA,NA,NA,NA,NA,NA,NA,NA,NA,NA,NA,NA,NA,NA,NA,NA,NA,NA,NA,NA,NA,NA,NA,NA,NA,NA,NA,exclude
378287,27,NA,NA,NA,NA,NA,NA,NA,NA,NA,NA,NA,NA,NA,NA,NA,NA,NA,NA,NA,NA,NA,NA,NA,NA,NA,NA,NA,NA,NA,NA,NA,NA,NA,NA,NA,NA,NA,NA,NA,NA,NA,NA,NA,NA,NA,NA,NA,NA,NA,NA,NA,NA,NA,NA,NA,NA,NA,NA,NA,NA,NA,NA,NA,NA,NA,NA,NA,NA,NA,NA,exclude
261066,NA,f,NA,NA,NA,NA,NA,NA,NA,NA,NA,NA,NA,NA,NA,NA,NA,NA,NA,NA,NA,NA,NA,NA,NA,NA,NA,NA,NA,NA,NA,NA,NA,NA,NA,NA,NA,NA,NA,NA,NA,NA,NA,NA,NA,NA,NA,NA,NA,NA,NA,NA,NA,NA,NA,NA,NA,NA,NA,NA,NA,NA,NA,NA,NA,NA,NA,NA,NA,NA,NA,exclude
643783,NA,f,NA,NA,NA,NA,NA,NA,NA,NA,NA,NA,NA,NA,NA,NA,NA,NA,NA,NA,NA,NA,NA,NA,NA,NA,NA,NA,NA,NA,NA,NA,NA,NA,NA,NA,NA,NA,NA,NA,NA,NA,NA,NA,NA,NA,NA,NA,NA,NA,NA,NA,NA,NA,NA,NA,NA,NA,NA,NA,NA,NA,NA,NA,NA,NA,NA,NA,NA,NA,NA,exclude
134029,NA,NA,NA,NA,NA,NA,NA,NA,NA,NA,NA,NA,NA,NA,NA,NA,NA,NA,NA,NA,NA,NA,NA,NA,NA,NA,NA,NA,NA,NA,NA,NA,NA,NA,NA,NA,NA,NA,NA,NA,NA,NA,NA,NA,NA,NA,NA,NA,NA,NA,NA,NA,NA,NA,NA,NA,NA,NA,NA,NA,NA,NA,NA,NA,NA,NA,NA,NA,NA,NA,NA,exclude
577532,NA,f,NA,NA,NA,NA,NA,NA,NA,NA,NA,NA,NA,NA,NA,NA,NA,NA,NA,NA,NA,NA,NA,NA,NA,NA,NA,NA,NA,NA,NA,NA,NA,NA,NA,NA,NA,NA,NA,NA,NA,NA,NA,NA,NA,NA,NA,NA,NA,NA,NA,NA,NA,NA,NA,NA,NA,NA,NA,NA,NA,NA,NA,NA,NA,NA,NA,NA,NA,NA,NA,exclude
199563,NA,NA,NA,NA,NA,NA,NA,NA,NA,NA,NA,NA,NA,NA,NA,NA,NA,NA,NA,NA,NA,NA,NA,NA,NA,NA,NA,NA,NA,NA,NA,NA,NA,NA,NA,NA,NA,NA,NA,NA,NA,NA,NA,NA,NA,NA,NA,NA,NA,NA,NA,NA,NA,NA,NA,NA,NA,NA,NA,NA,NA,NA,NA,NA,NA,NA,NA,NA,NA,NA,NA,exclude
411777,39,NA,NA,NA,NA,NA,NA,NA,NA,NA,NA,NA,NA,NA,NA,NA,NA,NA,NA,NA,NA,NA,NA,NA,NA,NA,NA,NA,NA,NA,NA,NA,NA,NA,NA,NA,NA,NA,NA,NA,NA,NA,NA,NA,NA,NA,NA,NA,NA,NA,NA,NA,NA,NA,NA,NA,NA,NA,NA,NA,NA,NA,NA,NA,NA,NA,NA,NA,NA,NA,NA,exclude
645496,18,NA,NA,NA,NA,NA,NA,NA,NA,NA,NA,NA,NA,NA,NA,NA,NA,NA,NA,NA,NA,NA,NA,NA,NA,NA,NA,NA,NA,NA,NA,NA,NA,NA,NA,NA,NA,NA,NA,NA,NA,NA,NA,NA,NA,NA,NA,NA,NA,NA,NA,NA,NA,NA,NA,NA,NA,NA,NA,NA,NA,NA,NA,NA,NA,NA,NA,NA,NA,NA,NA,exclude
195497,NA,NA,NA,NA,NA,NA,NA,NA,NA,NA,NA,NA,NA,NA,NA,NA,NA,NA,NA,NA,NA,NA,NA,NA,NA,NA,NA,NA,NA,NA,NA,NA,NA,NA,NA,NA,NA,NA,NA,NA,NA,NA,NA,NA,NA,NA,NA,NA,NA,NA,NA,NA,NA,NA,NA,NA,NA,NA,NA,NA,NA,NA,NA,NA,NA,NA,NA,NA,NA,NA,NA,exclude
641353,NA,NA,NA,NA,NA,NA,NA,NA,NA,NA,NA,NA,NA,NA,NA,NA,NA,NA,NA,NA,NA,NA,NA,NA,NA,NA,NA,NA,NA,NA,NA,NA,NA,NA,NA,NA,NA,NA,NA,NA,NA,NA,NA,NA,NA,NA,NA,NA,NA,NA,NA,NA,NA,NA,NA,NA,NA,NA,NA,NA,NA,NA,NA,NA,NA,NA,NA,NA,NA,NA,NA,exclude
160049,NA,NA,NA,NA,NA,NA,NA,NA,NA,NA,NA,NA,NA,NA,NA,NA,NA,NA,NA,NA,NA,NA,NA,NA,NA,NA,NA,NA,NA,NA,NA,NA,NA,NA,NA,NA,NA,NA,NA,NA,NA,NA,NA,NA,NA,NA,NA,NA,NA,NA,NA,NA,NA,NA,NA,NA,NA,NA,NA,NA,NA,NA,NA,NA,NA,NA,NA,NA,NA,NA,NA,exclude
300728,NA,f,NA,NA,NA,NA,NA,NA,NA,NA,NA,NA,NA,NA,NA,NA,NA,NA,NA,NA,NA,NA,NA,NA,NA,NA,NA,NA,NA,NA,NA,NA,NA,NA,NA,NA,NA,NA,NA,NA,NA,NA,NA,NA,NA,NA,NA,NA,NA,NA,NA,NA,NA,NA,NA,NA,NA,NA,NA,NA,NA,NA,NA,NA,NA,NA,NA,NA,NA,NA,NA,exclude
277895,NA,m,NA,NA,NA,NA,NA,NA,NA,NA,NA,NA,NA,NA,NA,NA,NA,NA,NA,NA,NA,NA,NA,NA,NA,NA,NA,NA,NA,NA,NA,NA,NA,NA,NA,NA,NA,NA,NA,NA,NA,NA,NA,NA,NA,NA,NA,NA,NA,NA,NA,NA,NA,NA,NA,NA,NA,NA,NA,NA,NA,NA,NA,NA,NA,NA,NA,NA,NA,NA,NA,exclude
596216,NA,f,NA,NA,NA,NA,NA,NA,NA,NA,NA,NA,NA,NA,NA,NA,NA,NA,NA,NA,NA,NA,NA,NA,NA,NA,NA,NA,NA,NA,NA,NA,NA,NA,NA,NA,NA,NA,NA,NA,NA,NA,NA,NA,NA,NA,NA,NA,NA,NA,NA,NA,NA,NA,NA,NA,NA,NA,NA,NA,NA,NA,NA,NA,NA,NA,NA,NA,NA,NA,NA,exclude
359274,NA,f,NA,NA,NA,NA,NA,NA,NA,NA,NA,NA,NA,NA,NA,NA,NA,NA,NA,NA,NA,NA,NA,NA,NA,NA,NA,NA,NA,NA,NA,NA,NA,NA,NA,NA,NA,NA,NA,NA,NA,NA,NA,NA,NA,NA,NA,NA,NA,NA,NA,NA,NA,NA,NA,NA,NA,NA,NA,NA,NA,NA,NA,NA,NA,NA,NA,NA,NA,NA,NA,exclude
560216,NA,f,NA,NA,NA,NA,NA,NA,NA,NA,NA,NA,NA,NA,NA,NA,NA,NA,NA,NA,NA,NA,NA,NA,NA,NA,NA,NA,NA,NA,NA,NA,NA,NA,NA,NA,NA,NA,NA,NA,NA,NA,NA,NA,NA,NA,NA,NA,NA,NA,NA,NA,NA,NA,NA,NA,NA,NA,NA,NA,NA,NA,NA,NA,NA,NA,NA,NA,NA,NA,NA,exclude
279540,NA,m,NA,NA,NA,NA,NA,NA,NA,NA,NA,NA,NA,NA,NA,NA,NA,NA,NA,NA,NA,NA,NA,NA,NA,NA,NA,NA,NA,NA,NA,NA,NA,NA,NA,NA,NA,NA,NA,NA,NA,NA,NA,NA,NA,NA,NA,NA,NA,NA,NA,NA,NA,NA,NA,NA,NA,NA,NA,NA,NA,NA,NA,NA,NA,NA,NA,NA,NA,NA,NA,exclude
641072,NA,NA,NA,NA,NA,NA,NA,NA,NA,NA,NA,NA,NA,NA,NA,NA,NA,NA,NA,NA,NA,NA,NA,NA,NA,NA,NA,NA,NA,NA,NA,NA,NA,NA,NA,NA,NA,NA,NA,NA,NA,NA,NA,NA,NA,NA,NA,NA,NA,NA,NA,NA,NA,NA,NA,NA,NA,NA,NA,NA,NA,NA,NA,NA,NA,NA,NA,NA,NA,NA,NA,exclude
500267,18,NA,NA,NA,NA,NA,NA,NA,NA,NA,NA,NA,NA,NA,NA,NA,NA,NA,NA,NA,NA,NA,NA,NA,NA,NA,NA,NA,NA,NA,NA,NA,NA,NA,NA,NA,NA,NA,NA,NA,NA,NA,NA,NA,NA,NA,NA,NA,NA,NA,NA,NA,NA,NA,NA,NA,NA,NA,NA,NA,NA,NA,NA,NA,NA,NA,NA,NA,NA,NA,NA,exclude
452844,42,NA,NA,NA,NA,NA,NA,NA,NA,NA,NA,NA,NA,NA,NA,NA,NA,NA,NA,NA,NA,NA,NA,NA,NA,NA,NA,NA,NA,NA,NA,NA,NA,NA,NA,NA,NA,NA,NA,NA,NA,NA,NA,NA,NA,NA,NA,NA,NA,NA,NA,NA,NA,NA,NA,NA,NA,NA,NA,NA,NA,NA,NA,NA,NA,NA,NA,NA,NA,NA,NA,exclude
113540,NA,NA,NA,NA,NA,NA,NA,NA,NA,NA,NA,NA,NA,NA,NA,NA,NA,NA,NA,NA,NA,NA,NA,NA,NA,NA,NA,NA,NA,NA,NA,NA,NA,NA,NA,NA,NA,NA,NA,NA,NA,NA,NA,NA,NA,NA,NA,NA,NA,NA,NA,NA,NA,NA,NA,NA,NA,NA,NA,NA,NA,NA,NA,NA,NA,NA,NA,NA,NA,NA,NA,exclude
449949,28,NA,NA,NA,NA,NA,NA,NA,NA,NA,NA,NA,NA,NA,NA,NA,NA,NA,NA,NA,NA,NA,NA,NA,NA,NA,NA,NA,NA,NA,NA,NA,NA,NA,NA,NA,NA,NA,NA,NA,NA,NA,NA,NA,NA,NA,NA,NA,NA,NA,NA,NA,NA,NA,NA,NA,NA,NA,NA,NA,NA,NA,NA,NA,NA,NA,NA,NA,NA,NA,NA,exclude
548419,18,NA,NA,NA,NA,NA,NA,NA,NA,NA,NA,NA,NA,NA,NA,NA,NA,NA,NA,NA,NA,NA,NA,NA,NA,NA,NA,NA,NA,NA,NA,NA,NA,NA,NA,NA,NA,NA,NA,NA,NA,NA,NA,NA,NA,NA,NA,NA,NA,NA,NA,NA,NA,NA,NA,NA,NA,NA,NA,NA,NA,NA,NA,NA,NA,NA,NA,NA,NA,NA,NA,exclude
523091,23,NA,NA,NA,NA,NA,NA,NA,NA,NA,NA,NA,NA,NA,NA,NA,NA,NA,NA,NA,NA,NA,NA,NA,NA,NA,NA,NA,NA,NA,NA,NA,NA,NA,NA,NA,NA,NA,NA,NA,NA,NA,NA,NA,NA,NA,NA,NA,NA,NA,NA,NA,NA,NA,NA,NA,NA,NA,NA,NA,NA,NA,NA,NA,NA,NA,NA,NA,NA,NA,NA,exclude
248678,NA,f,NA,NA,NA,NA,NA,NA,NA,NA,NA,NA,NA,NA,NA,NA,NA,NA,NA,NA,NA,NA,NA,NA,NA,NA,NA,NA,NA,NA,NA,NA,NA,NA,NA,NA,NA,NA,NA,NA,NA,NA,NA,NA,NA,NA,NA,NA,NA,NA,NA,NA,NA,NA,NA,NA,NA,NA,NA,NA,NA,NA,NA,NA,NA,NA,NA,NA,NA,NA,NA,exclude
305274,NA,NA,NA,NA,NA,NA,NA,NA,NA,NA,NA,NA,NA,NA,NA,NA,NA,NA,NA,NA,NA,NA,NA,NA,NA,NA,NA,NA,NA,NA,NA,NA,NA,NA,NA,NA,NA,NA,NA,NA,NA,NA,NA,NA,NA,NA,NA,NA,NA,NA,NA,NA,NA,NA,NA,NA,NA,NA,NA,NA,NA,NA,NA,NA,NA,NA,NA,NA,NA,NA,NA,exclude
340849,21,NA,NA,NA,NA,NA,NA,NA,NA,NA,NA,NA,NA,NA,NA,NA,NA,NA,NA,NA,NA,NA,NA,NA,NA,NA,NA,NA,NA,NA,NA,NA,NA,NA,NA,NA,NA,NA,NA,NA,NA,NA,NA,NA,NA,NA,NA,NA,NA,NA,NA,NA,NA,NA,NA,NA,NA,NA,NA,NA,NA,NA,NA,NA,NA,NA,NA,NA,NA,NA,NA,exclude
107251,NA,NA,NA,NA,NA,NA,NA,NA,NA,NA,NA,NA,NA,NA,NA,NA,NA,NA,NA,NA,NA,NA,NA,NA,NA,NA,NA,NA,NA,NA,NA,NA,NA,NA,NA,NA,NA,NA,NA,NA,NA,NA,NA,NA,NA,NA,NA,NA,NA,NA,NA,NA,NA,NA,NA,NA,NA,NA,NA,NA,NA,NA,NA,NA,NA,NA,NA,NA,NA,NA,NA,exclude
624960,NA,f,NA,NA,NA,NA,NA,NA,NA,NA,NA,NA,NA,NA,NA,NA,NA,NA,NA,NA,NA,NA,NA,NA,NA,NA,NA,NA,NA,NA,NA,NA,NA,NA,NA,NA,NA,NA,NA,NA,NA,NA,NA,NA,NA,NA,NA,NA,NA,NA,NA,NA,NA,NA,NA,NA,NA,NA,NA,NA,NA,NA,NA,NA,NA,NA,NA,NA,NA,NA,NA,exclude
293615,27,NA,NA,NA,NA,NA,NA,NA,NA,NA,NA,NA,NA,NA,NA,NA,NA,NA,NA,NA,NA,NA,NA,NA,NA,NA,NA,NA,NA,NA,NA,NA,NA,NA,NA,NA,NA,NA,NA,NA,NA,NA,NA,NA,NA,NA,NA,NA,NA,NA,NA,NA,NA,NA,NA,NA,NA,NA,NA,NA,NA,NA,NA,NA,NA,NA,NA,NA,NA,NA,NA,exclude
140150,51,NA,NA,NA,NA,NA,NA,NA,NA,NA,NA,NA,NA,NA,NA,NA,NA,NA,NA,NA,NA,NA,NA,NA,NA,NA,NA,NA,NA,NA,NA,NA,NA,NA,NA,NA,NA,NA,NA,NA,NA,NA,NA,NA,NA,NA,NA,NA,NA,NA,NA,NA,NA,NA,NA,NA,NA,NA,NA,NA,NA,NA,NA,NA,NA,NA,NA,NA,NA,NA,NA,exclude
638205,16,NA,NA,NA,NA,NA,NA,NA,NA,NA,NA,NA,NA,NA,NA,NA,NA,NA,NA,NA,NA,NA,NA,NA,NA,NA,NA,NA,NA,NA,NA,NA,NA,NA,NA,NA,NA,NA,NA,NA,NA,NA,NA,NA,NA,NA,NA,NA,NA,NA,NA,NA,NA,NA,NA,NA,NA,NA,NA,NA,NA,NA,NA,NA,NA,NA,NA,NA,NA,NA,NA,exclude
554627,54,NA,NA,NA,NA,NA,NA,NA,NA,NA,NA,NA,NA,NA,NA,NA,NA,NA,NA,NA,NA,NA,NA,NA,NA,NA,NA,NA,NA,NA,NA,NA,NA,NA,NA,NA,NA,NA,NA,NA,NA,NA,NA,NA,NA,NA,NA,NA,NA,NA,NA,NA,NA,NA,NA,NA,NA,NA,NA,NA,NA,NA,NA,NA,NA,NA,NA,NA,NA,NA,NA,exclude
108098,23,NA,NA,NA,NA,NA,NA,NA,NA,NA,NA,NA,NA,NA,NA,NA,NA,NA,NA,NA,NA,NA,NA,NA,NA,NA,NA,NA,NA,NA,NA,NA,NA,NA,NA,NA,NA,NA,NA,NA,NA,NA,NA,NA,NA,NA,NA,NA,NA,NA,NA,NA,NA,NA,NA,NA,NA,NA,NA,NA,NA,NA,NA,NA,NA,NA,NA,NA,NA,NA,NA,exclude
213510,NA,NA,NA,NA,NA,NA,NA,NA,NA,NA,NA,NA,NA,NA,NA,NA,NA,NA,NA,NA,NA,NA,NA,NA,NA,NA,NA,NA,NA,NA,NA,NA,NA,NA,NA,NA,NA,NA,NA,NA,NA,NA,NA,NA,NA,NA,NA,NA,NA,NA,NA,NA,NA,NA,NA,NA,NA,NA,NA,NA,NA,NA,NA,NA,NA,NA,NA,NA,NA,NA,NA,exclude
315948,NA,m,NA,NA,NA,NA,NA,NA,NA,NA,NA,NA,NA,NA,NA,NA,NA,NA,NA,NA,NA,NA,NA,NA,NA,NA,NA,NA,NA,NA,NA,NA,NA,NA,NA,NA,NA,NA,NA,NA,NA,NA,NA,NA,NA,NA,NA,NA,NA,NA,NA,NA,NA,NA,NA,NA,NA,NA,NA,NA,NA,NA,NA,NA,NA,NA,NA,NA,NA,NA,NA,exclude
524730,NA,NA,NA,NA,NA,NA,NA,NA,NA,NA,NA,NA,NA,NA,NA,NA,NA,NA,NA,NA,NA,NA,NA,NA,NA,NA,NA,NA,NA,NA,NA,NA,NA,NA,NA,NA,NA,NA,NA,NA,NA,NA,NA,NA,NA,NA,NA,NA,NA,NA,NA,NA,NA,NA,NA,NA,NA,NA,NA,NA,NA,NA,NA,NA,NA,NA,NA,NA,NA,NA,NA,exclude
450164,42,NA,NA,NA,NA,NA,NA,NA,NA,NA,NA,NA,NA,NA,NA,NA,NA,NA,NA,NA,NA,NA,NA,NA,NA,NA,NA,NA,NA,NA,NA,NA,NA,NA,NA,NA,NA,NA,NA,NA,NA,NA,NA,NA,NA,NA,NA,NA,NA,NA,NA,NA,NA,NA,NA,NA,NA,NA,NA,NA,NA,NA,NA,NA,NA,NA,NA,NA,NA,NA,NA,exclude
404976,NA,m,NA,NA,NA,NA,NA,NA,NA,NA,NA,NA,NA,NA,NA,NA,NA,NA,NA,NA,NA,NA,NA,NA,NA,NA,NA,NA,NA,NA,NA,NA,NA,NA,NA,NA,NA,NA,NA,NA,NA,NA,NA,NA,NA,NA,NA,NA,NA,NA,NA,NA,NA,NA,NA,NA,NA,NA,NA,NA,NA,NA,NA,NA,NA,NA,NA,NA,NA,NA,NA,exclude
